"","rt","shape_org","cueType","e1_motion_dir","e2_motion_dir","responseAR","cuedAR","uncuedAR","coherence","cued_motion_dir","uncued_motion_dir","response_error","trial_number","round_number","sub","arDiff","pairAvg","cuedMotDir1V0H2R","global_org1W0B","sameDirection1S0D","sameDirection1S0D_R2","pairSameARCat","identicalShapesI1D0","randomTrialsR1C0","motionType1Diag0Trans","responseAR_normed","uncuedCat","cuedCat","respAcc","globalMotion"
"1",4450,4,1,270,180,0,0.32,-0.37,1,270,180,-0.32432,0,0,19129,-0.69498,-0.02317,1,1,0,0,0,0,0,0,-0.0772188888888889,"-1",1,0,"1"
"2",5456,4,1,270,270,-0.23,0.28,0.37,1,270,270,-0.50965,1,0,19129,0.09266,0.32432,1,1,1,1,1,0,0,1,-0.384553,"1",1,0,"1"
"3",5091,4,2,180,0,0.28,0.05,0.23,1,0,180,0.23166,2,0,19129,0.18533,0.138995,0,1,0,0,1,0,0,0,0.120464,"1",1,1,"-1"
"4",5773,4,2,180,0,0,-0.23,0.05,1,0,180,0.23166,3,0,19129,0.27799,-0.092665,0,1,0,0,0,0,0,0,0.08108125,"1",-1,0,"-1"
"5",4407,2,2,0,180,0.32,-0.28,0.46,1,180,0,0.60231,4,0,19129,0.74131,0.092665,0,0,0,0,0,0,0,0,0.46910625,"1",-1,0,"-1"
"6",3308,3,2,0,270,0,-0.09,0.32,1,270,0,0.09266,5,0,19129,0.41698,0.11583,1,1,0,0,0,0,0,1,0.0198585714285714,"1",-1,0,"1"
"7",3941,3,1,270,180,0.37,-0.09,-0.23,1,270,180,0.46332,6,0,19129,-0.139,-0.16216,1,1,0,0,1,0,0,0,0.390508571428571,"-1",-1,0,"1"
"8",4274,1,2,270,180,0.32,0.14,0.19,1,180,270,0.18533,7,0,19129,0.04634,0.16216,0,0,0,0,1,0,0,0,0.12741,"1",1,1,"-1"
"9",2924,3,1,90,270,0.28,0.05,0.37,1,90,270,0.23166,8,0,19129,0.32432,0.20849,1,1,0,0,1,0,0,0,0.120464,"1",1,1,"1"
"10",3324,4,2,0,180,0.19,-0.32,0.14,1,180,0,0.50965,9,0,19129,0.46331,-0.092665,0,1,0,0,0,0,0,0,0.297851428571429,"1",-1,0,"-1"
"11",3290,4,1,90,0,0.23,-0.28,0.09,1,90,0,0.50965,10,0,19129,0.37065,-0.092665,1,1,0,0,0,0,0,0,0.37644625,"1",-1,0,"1"
"14",4224,3,1,90,0,-0.09,-0.05,-0.46,1,90,0,-0.04633,13,0,19129,-0.41699,-0.254825,1,1,0,0,1,0,0,0,0.00000399999999999012,"-1",-1,1,"1"
"15",2797,3,2,270,180,-0.19,-0.09,-0.09,1,180,270,-0.09266,14,0,19129,0,-0.09266,0,1,0,0,1,1,0,0,-0.165471428571429,"-1",-1,1,"-1"
"16",2691,3,2,0,180,-0.09,0.09,-0.42,1,180,0,-0.18533,15,0,19129,-0.50965,-0.162165,0,1,0,0,0,0,0,0,-0.150573333333333,"-1",1,0,"-1"
"18",3218,3,1,0,0,0.28,0.23,0.23,1,0,0,0.04633,17,0,19129,0,0.23166,0,1,1,1,1,1,0,1,0.123553333333333,"1",1,1,"-1"
"19",2958,2,2,90,90,-0.28,0,0.32,1,90,90,-0.27799,18,0,19129,0.32432,0.16216,1,0,1,1,0,0,0,1,-0.386096666666667,"1",0,0,"1"
"20",4691,4,1,90,180,0.19,-0.14,0.19,1,90,180,0.32432,19,0,19129,0.32433,0.023165,1,1,0,0,0,0,0,0,0.341174545454545,"1",-1,0,"1"
"21",3275,4,1,180,0,-0.32,0.14,-0.46,1,180,0,-0.46332,20,0,19129,-0.60231,-0.162165,0,1,0,0,0,0,0,0,-0.52123,"-1",1,0,"-1"
"23",3759,4,2,180,90,-0.28,-0.42,-0.42,1,90,180,0.139,22,0,19129,0,-0.41699,1,1,0,0,1,1,0,0,-0.0772188888888889,"-1",-1,1,"1"
"24",4979,4,1,270,270,-0.28,-0.42,-0.42,1,270,270,0.139,23,0,19129,0,-0.41699,1,1,1,1,1,1,0,1,-0.0772188888888889,"-1",-1,1,"1"
"25",4011,4,1,90,90,-0.37,-0.37,-0.32,1,90,90,0,24,0,19129,0.04634,-0.34749,1,1,1,1,1,0,0,1,-0.176908181818182,"-1",-1,1,"1"
"26",3073,4,2,90,90,0.32,-0.23,-0.23,1,90,90,0.55598,25,0,19129,0,-0.23166,1,1,1,1,1,1,0,1,0.40540125,"-1",-1,0,"1"
"27",5814,2,1,270,0,0.32,-0.19,0.46,1,270,0,0.50965,26,0,19129,0.64865,0.138995,1,0,0,0,0,0,0,1,0.194594,"1",-1,0,"1"
"28",2250,3,2,270,180,0.46,0.23,-0.46,1,180,270,0.23166,27,0,19129,-0.69498,-0.11583,0,1,0,0,0,0,0,0,0.308883333333333,"-1",1,1,"-1"
"29",3274,2,1,0,180,0.37,0.14,-0.05,1,0,180,0.23166,28,0,19129,-0.18532,0.04633,0,0,0,0,0,0,0,0,0.17374,"-1",1,1,"-1"
"30",2650,4,2,0,90,0.23,-0.14,-0.19,1,90,0,0.37065,29,0,19129,-0.04633,-0.162165,1,1,0,0,1,0,0,0,0.387504545454545,"-1",-1,0,"1"
"31",2625,1,1,180,0,-0.32,-0.42,-0.19,1,180,0,0.09266,30,0,19129,0.23166,-0.30116,0,0,0,0,1,0,0,0,-0.123548888888889,"-1",-1,1,"-1"
"34",3306,2,1,270,180,-0.23,0.09,0.09,1,270,180,-0.32432,33,0,19129,0,0.09266,1,0,0,0,1,1,0,0,-0.289573333333333,"1",1,0,"1"
"35",3507,3,2,270,180,0.32,0.46,-0.37,1,180,270,-0.139,34,0,19129,-0.83398,0.04633,0,1,0,0,0,0,0,0,-0.00772500000000004,"-1",1,1,"-1"
"36",2943,1,2,180,180,-0.32,-0.28,-0.46,1,180,180,-0.04633,35,0,19129,-0.18533,-0.370655,0,0,1,1,1,0,0,1,-0.17953375,"-1",-1,1,"-1"
"38",2816,4,2,270,270,0.46,0.23,-0.28,1,270,270,0.23166,37,0,19129,-0.50965,-0.023165,1,1,1,1,0,0,0,1,0.308883333333333,"-1",1,1,"1"
"39",5024,1,2,0,270,0.32,0.37,-0.46,1,270,0,-0.04633,38,0,19129,-0.83397,-0.046335,1,0,0,0,0,0,0,1,-0.018535,"-1",1,1,"1"
"40",1992,3,1,0,180,0.32,0.32,0.32,1,0,180,0,39,0,19129,0,0.32432,0,1,0,0,1,1,0,0,0.247101111111111,"1",1,1,"-1"
"41",3895,4,1,0,180,-0.28,-0.42,0.09,1,0,180,0.139,40,0,19129,0.50965,-0.162165,0,1,0,0,0,0,0,0,-0.0772188888888889,"1",-1,1,"-1"
"42",2033,2,2,180,270,-0.32,0.32,0.32,1,270,180,-0.64865,41,0,19129,0,0.32432,1,0,0,0,1,1,0,0,-0.401538888888889,"1",1,0,"1"
"45",3275,2,1,270,90,0.37,0.19,0.28,1,270,90,0.18533,44,0,19129,0.09266,0.23166,1,0,0,0,1,0,0,0,0.1505775,"1",1,1,"1"
"46",3276,4,1,270,90,0.37,0.05,0.37,1,270,90,0.32432,45,0,19129,0.32432,0.20849,1,1,0,0,1,0,0,0,0.213124,"1",1,1,"1"
"47",4672,1,1,270,180,0.28,0.37,0.32,1,270,180,-0.09266,46,0,19129,-0.04633,0.347485,1,0,0,0,1,0,0,0,-0.064865,"1",1,1,"1"
"49",2187,2,1,90,0,0.37,-0.28,0.46,1,90,0,0.64865,48,0,19129,0.74131,0.092665,1,0,0,0,0,0,0,0,0.51543625,"1",-1,0,"1"
"50",2331,3,1,180,270,0.37,0.14,-0.19,1,180,270,0.23166,49,0,19129,-0.32432,-0.02317,0,1,0,0,0,0,0,0,0.17374,"-1",1,1,"-1"
"51",6340,4,2,270,90,-0.32,-0.37,0.42,1,90,270,0.04633,50,0,19129,0.78765,0.023165,1,1,0,0,0,0,0,0,-0.130568181818182,"1",-1,1,"1"
"56",3815,4,2,180,0,-0.28,0.14,-0.42,1,0,180,-0.41699,55,0,19129,-0.55598,-0.139,0,1,0,0,0,0,0,0,-0.4749,"-1",1,0,"-1"
"57",2659,3,2,90,90,0.42,-0.23,-0.23,1,90,90,0.64865,56,0,19129,0,-0.23166,1,1,1,1,1,1,0,1,0.49807125,"-1",-1,0,"1"
"58",3011,3,1,0,270,0.37,0,-0.19,1,0,270,0.37065,57,0,19129,-0.18533,-0.092665,0,1,0,0,0,0,0,1,0.262543333333333,"-1",0,0,"-1"
"59",2825,2,1,270,0,-0.37,0.19,0.28,1,270,0,-0.55598,58,0,19129,0.09266,0.23166,1,0,0,0,1,0,0,1,-0.5907325,"1",1,0,"1"
"60",3024,2,2,90,270,-0.37,-0.46,-0.23,1,270,90,0.09266,59,0,19129,0.23166,-0.34749,1,0,0,0,1,0,0,0,0.0173725,"-1",-1,1,"1"
"64",3457,2,1,180,90,0.37,0.28,0.23,1,180,90,0.09266,63,0,19129,-0.04633,0.254825,0,0,0,0,1,0,0,0,0.217757,"1",1,1,"-1"
"65",2041,2,2,0,90,-0.37,-0.46,-0.14,1,90,0,0.09266,64,0,19129,0.32432,-0.30116,1,0,0,0,1,0,0,0,0.0173725,"-1",-1,1,"1"
"66",2108,4,2,270,90,0.37,-0.32,0,1,90,270,0.69498,65,0,19129,0.32432,-0.16216,1,1,0,0,0,0,0,0,0.483171428571429,"0",-1,0,"1"
"67",2486,3,2,180,0,-0.42,-0.14,-0.14,1,0,180,-0.27799,66,0,19129,0,-0.139,0,1,0,0,1,1,0,0,-0.261145454545455,"-1",-1,1,"-1"
"68",2344,1,1,180,0,0.37,0.05,0.05,1,180,0,0.32432,67,0,19129,0,0.04633,0,0,0,0,1,1,0,0,0.213124,"1",1,1,"-1"
"69",3057,4,1,180,270,0.37,-0.32,-0.28,1,180,270,0.69498,68,0,19129,0.04633,-0.301155,0,1,0,0,1,0,0,0,0.483171428571429,"-1",-1,0,"-1"
"71",5647,1,2,90,180,0.42,0.05,0.19,1,180,90,0.37065,70,0,19129,0.139,0.11583,0,0,0,0,1,0,0,0,0.259464,"1",1,1,"-1"
"72",2332,4,2,180,270,-0.37,0,-0.23,1,270,180,-0.37066,71,0,19129,-0.23166,-0.11583,1,1,0,0,0,0,0,0,-0.478766666666667,"-1",0,0,"1"
"74",2825,3,1,270,90,0.42,0.09,0.19,1,270,90,0.32432,73,0,19129,0.09267,0.138995,1,1,0,0,1,0,0,0,0.359076666666667,"1",1,1,"1"
"75",3131,4,1,90,90,0.42,0.32,0,1,90,90,0.09266,74,0,19129,-0.32432,0.16216,1,1,1,1,0,0,0,1,0.339771111111111,"0",1,1,"1"
"76",1980,4,1,180,90,-0.46,-0.46,0.37,1,180,90,0,75,0,19129,0.83397,-0.046335,0,1,0,0,0,0,0,0,-0.0752875,"1",-1,1,"-1"
"77",3957,3,2,180,90,0.32,0.23,0,1,90,180,0.09266,76,0,19129,-0.23166,0.11583,1,1,0,0,0,0,0,0,0.169883333333333,"0",1,1,"1"
"79",3043,3,1,0,180,0.32,0.05,0.46,1,0,180,0.27799,78,0,19129,0.41699,0.254825,0,1,0,0,1,0,0,0,0.166794,"1",1,1,"-1"
"80",4075,3,2,0,0,0.28,0.19,-0.19,1,0,0,0.09266,79,0,19129,-0.37066,0,0,1,1,1,0,0,0,1,0.0579175,"-1",1,1,"-1"
"81",3073,3,2,90,0,-0.42,-0.14,-0.05,1,0,90,-0.27799,80,0,19129,0.09267,-0.092665,0,1,0,0,1,0,0,0,-0.261145454545455,"-1",-1,1,"-1"
"82",2218,4,2,0,0,0.37,0.32,-0.19,1,0,0,0.04633,81,0,19129,-0.50965,0.069495,0,1,1,1,0,0,0,1,0.293431111111111,"-1",1,1,"-1"
"84",1876,3,2,270,180,-0.42,-0.46,0.46,1,180,270,0.04633,83,0,19129,0.92664,0,0,1,0,0,0,0,0,0,-0.0289575,"1",-1,1,"-1"
"85",5449,2,1,90,0,0.37,0.37,0.05,1,90,0,0,84,0,19129,-0.32432,0.20849,1,0,0,0,1,0,0,0,0.027795,"1",1,1,"1"
"86",2041,4,1,180,90,-0.42,-0.28,0,1,180,90,-0.139,85,0,19129,0.27799,-0.138995,0,1,0,0,0,0,0,0,-0.27220375,"0",-1,1,"-1"
"88",3574,3,1,180,0,0.42,0.14,0.32,1,180,0,0.27799,87,0,19129,0.18533,0.231655,0,1,0,0,1,0,0,0,0.22008,"1",1,1,"-1"
"90",3385,1,2,180,0,0.32,-0.28,0.46,1,0,180,0.60231,89,0,19129,0.74131,0.092665,0,0,0,0,0,0,0,0,0.46910625,"1",-1,0,"-1"
"91",5080,4,2,270,270,0.37,-0.19,0.09,1,270,270,0.55598,90,0,19129,0.27799,-0.046335,1,1,1,1,0,0,0,1,0.240924,"1",-1,0,"1"
"92",3620,3,1,0,90,0.42,0.46,0.42,1,0,90,-0.04633,91,0,19129,-0.04633,0.440155,0,1,0,0,1,0,0,0,0.084945,"1",1,1,"-1"
"93",4873,3,1,90,0,-0.37,0.23,0.42,1,90,0,-0.60231,92,0,19129,0.18533,0.324325,1,1,0,0,1,0,0,0,-0.525096666666667,"1",1,0,"1"
"95",2967,2,2,0,270,-0.37,0.42,0,1,270,0,-0.78764,94,0,19129,-0.41699,0.208495,1,0,0,0,0,0,0,1,-0.555985,"0",1,0,"1"
"97",2641,4,1,0,270,0.37,0.37,-0.46,1,0,270,0,96,0,19129,-0.83397,-0.046335,0,1,0,0,0,0,0,1,0.027795,"-1",1,1,"-1"
"98",2093,4,1,180,0,0.37,0.23,0.14,1,180,0,0.139,97,0,19129,-0.09267,0.185325,0,1,0,0,1,0,0,0,0.216213333333333,"1",1,1,"-1"
"99",3158,4,2,90,270,-0.37,0.05,0.14,1,270,90,-0.41699,98,0,19129,0.09266,0.09266,1,1,0,0,1,0,0,0,-0.528186,"1",1,0,"1"
"100",3233,4,1,0,90,0.37,-0.19,-0.14,1,0,90,0.55598,99,0,19129,0.04633,-0.162165,0,1,0,0,1,0,0,0,0.240924,"-1",-1,0,"-1"
"101",2813,4,1,90,90,0.42,0.09,0.32,1,90,90,0.32432,100,0,19129,0.23166,0.20849,1,1,1,1,1,0,0,1,0.359076666666667,"1",1,1,"1"
"103",3058,1,2,90,90,-0.37,-0.28,0.42,1,90,90,-0.09266,102,0,19129,0.69498,0.0695,1,0,1,1,0,0,0,1,-0.22587375,"1",-1,1,"1"
"105",4457,4,1,180,270,0.37,0.37,-0.09,1,180,270,0,104,0,19129,-0.46331,0.138995,0,1,0,0,0,0,0,0,0.027795,"-1",1,1,"-1"
"107",2257,2,1,270,0,0.42,0.46,0.42,1,270,0,-0.04633,106,0,19129,-0.04633,0.440155,1,0,0,0,1,0,0,1,0.084945,"1",1,1,"1"
"108",1859,4,2,270,270,-0.42,0.09,0.09,1,270,270,-0.50965,107,0,19129,0,0.09266,1,1,1,1,1,1,0,1,-0.474903333333333,"1",1,0,"1"
"109",2293,3,1,90,90,0.32,-0.05,0.19,1,90,90,0.37065,108,0,19129,0.23166,0.0695,1,1,1,1,0,0,0,1,0.416984,"1",-1,0,"1"
"110",2858,3,2,270,270,-0.32,-0.23,-0.32,1,270,270,-0.09266,109,0,19129,-0.09266,-0.27799,1,1,1,1,1,0,0,1,-0.24323875,"-1",-1,1,"1"
"111",2731,4,1,270,180,-0.37,-0.28,-0.46,1,270,180,-0.09266,110,0,19129,-0.18533,-0.370655,1,1,0,0,1,0,0,0,-0.22587375,"-1",-1,1,"1"
"112",3607,2,1,90,90,-0.37,-0.42,-0.42,1,90,90,0.04633,111,0,19129,0,-0.41699,1,0,1,1,1,1,0,1,-0.169888888888889,"-1",-1,1,"1"
"113",2293,4,2,90,270,0.42,0.09,0.23,1,270,90,0.32432,112,0,19129,0.139,0.16216,1,1,0,0,1,0,0,0,0.359076666666667,"1",1,1,"1"
"114",3213,2,1,0,270,-0.42,0,0.14,1,0,270,-0.41699,113,0,19129,0.13899,0.069495,0,0,0,0,0,0,0,1,-0.525096666666667,"1",0,0,"-1"
"116",4690,4,1,90,0,-0.37,0.19,-0.37,1,90,0,-0.55598,115,0,19129,-0.55599,-0.092665,1,1,0,0,0,0,0,0,-0.5907325,"-1",1,0,"1"
"117",5322,4,1,180,90,-0.32,-0.32,-0.32,1,180,90,0,116,0,19129,0,-0.32432,0,1,0,0,1,1,0,0,-0.211798571428571,"-1",-1,1,"-1"
"119",2191,2,2,0,270,-0.37,-0.05,-0.05,1,270,0,-0.32432,118,0,19129,0,-0.04633,1,0,0,0,1,1,0,1,-0.277996,"-1",-1,1,"1"
"120",1943,1,1,270,0,-0.32,-0.42,-0.19,1,270,0,0.09266,119,0,19129,0.23166,-0.30116,1,0,0,0,1,0,0,1,-0.123548888888889,"-1",-1,1,"1"
"121",2824,4,2,0,180,-0.37,-0.37,-0.37,1,180,0,0,120,0,19129,0,-0.37066,0,1,0,0,1,1,0,0,-0.176908181818182,"-1",-1,1,"-1"
"122",7006,4,2,270,180,-0.37,-0.23,0.09,1,180,270,-0.139,121,0,19129,0.32432,-0.0695,0,1,0,0,0,0,0,0,-0.28957875,"1",-1,1,"-1"
"125",2275,2,1,0,180,0.32,0,0.14,1,0,180,0.32432,124,0,19129,0.13899,0.069495,0,0,0,0,0,0,0,0,0.216213333333333,"1",0,0,"-1"
"127",2179,1,1,180,180,0.37,0.28,0.23,1,180,180,0.09266,126,0,19129,-0.04633,0.254825,0,0,1,1,1,0,0,1,0.217757,"1",1,1,"-1"
"128",3768,2,2,0,90,-0.46,0.09,-0.05,1,90,0,-0.55598,127,0,19129,-0.13899,0.023165,1,0,0,0,0,0,0,0,-0.521233333333333,"-1",1,0,"1"
"131",3930,2,2,90,180,-0.37,-0.19,-0.14,1,180,90,-0.18533,130,0,19129,0.04633,-0.162165,0,0,0,0,1,0,0,0,-0.500386,"-1",-1,1,"-1"
"133",3166,4,2,270,180,-0.19,-0.19,0.32,1,180,270,0,132,0,19129,0.50965,0.069495,0,1,0,0,0,0,0,0,-0.315056,"1",-1,1,"-1"
"134",2040,3,1,270,90,0.42,0.42,-0.37,1,270,90,0,133,0,19129,-0.78765,0.023165,1,1,0,0,0,0,0,0,0.231665,"-1",1,1,"1"
"135",3402,4,2,270,270,-0.32,-0.05,0.37,1,270,270,-0.27799,134,0,19129,0.41698,0.16216,1,1,1,1,0,0,0,1,-0.231656,"1",-1,1,"1"
"137",4566,3,2,180,90,0.23,0,0.42,1,90,180,0.23166,136,0,19129,0.41699,0.208495,1,1,0,0,0,0,0,0,0.123553333333333,"1",0,0,"1"
"141",2913,1,1,180,180,-0.28,-0.37,-0.05,1,180,180,0.09266,140,0,19129,0.32433,-0.208495,0,0,1,1,1,0,0,1,-0.0842381818181818,"-1",-1,1,"-1"
"142",4618,4,2,270,180,0.32,0.19,-0.23,1,180,270,0.139,141,0,19129,-0.41699,-0.023165,0,1,0,0,0,0,0,0,0.1042475,"-1",1,1,"-1"
"144",3568,3,2,0,0,-0.19,-0.23,0.46,1,0,0,0.04633,143,0,19129,0.69498,0.11583,0,1,1,1,0,0,0,1,-0.10424875,"1",-1,1,"-1"
"145",2972,3,2,90,0,-0.42,-0.14,-0.32,1,0,90,-0.27799,144,0,19129,-0.18532,-0.23166,0,1,0,0,1,0,0,0,-0.261145454545455,"-1",-1,1,"-1"
"147",2316,1,2,180,270,-0.42,-0.42,0.19,1,270,180,0,146,0,19129,0.60232,-0.11583,1,0,0,0,0,0,0,0,-0.216218888888889,"1",-1,1,"1"
"149",2275,3,2,180,0,-0.28,0,-0.09,1,0,180,-0.27799,1,1,19129,-0.09266,-0.04633,0,1,0,0,0,0,0,0,-0.386096666666667,"-1",0,0,"-1"
"150",2796,4,1,270,180,0.23,0.37,0.42,1,270,180,-0.139,2,1,19129,0.04634,0.39382,1,1,0,0,1,0,0,0,-0.111195,"1",1,1,"1"
"151",1809,2,2,180,0,-0.37,0.09,0.14,1,0,180,-0.46332,3,1,19129,0.04633,0.115825,0,0,0,0,1,0,0,0,-0.428573333333333,"1",1,0,"-1"
"152",5223,4,1,180,0,-0.37,0.05,-0.37,1,180,0,-0.41699,4,1,19129,-0.41699,-0.162165,0,1,0,0,0,0,0,0,-0.528186,"-1",1,0,"-1"
"154",4427,1,1,270,180,-0.32,0.32,0.19,1,270,180,-0.64865,6,1,19129,-0.13899,0.254825,1,0,0,0,1,0,0,0,-0.401538888888889,"1",1,0,"1"
"156",1719,3,1,90,90,-0.23,0.09,-0.37,1,90,90,-0.32432,8,1,19129,-0.46332,-0.139,1,1,1,1,0,0,0,1,-0.289573333333333,"-1",1,0,"1"
"157",2641,4,2,270,270,0.28,0.05,-0.09,1,270,270,0.23166,9,1,19129,-0.13899,-0.023165,1,1,1,1,0,0,0,1,0.120464,"-1",1,1,"1"
"158",1758,3,2,180,180,0.37,0.32,0.05,1,180,180,0.04633,10,1,19129,-0.27799,0.185325,0,1,1,1,1,0,0,1,0.293431111111111,"1",1,1,"-1"
"159",3553,4,1,270,90,0.28,0.46,0.23,1,270,90,-0.18533,11,1,19129,-0.23166,0.34749,1,1,0,0,1,0,0,0,-0.054055,"1",1,1,"1"
"160",1970,4,2,0,0,0.32,0.37,0.37,1,0,0,-0.04633,12,1,19129,0,0.37065,0,1,1,1,1,1,0,1,-0.018535,"1",1,1,"-1"
"161",1841,3,2,270,180,-0.46,0,0.09,1,180,270,-0.46332,13,1,19129,0.09266,0.04633,0,1,0,0,0,0,0,0,-0.571426666666667,"1",0,0,"-1"
"162",3843,2,2,90,0,0.32,-0.46,0.05,1,0,90,0.78764,14,1,19129,0.50965,-0.208495,0,0,0,0,0,0,0,0,0.7123525,"1",-1,0,"-1"
"164",1975,3,1,270,0,-0.32,-0.09,-0.19,1,270,0,-0.23166,16,1,19129,-0.09267,-0.138995,1,1,0,0,1,0,0,1,-0.304461428571429,"-1",-1,1,"1"
"165",3002,2,1,90,90,0,0.09,-0.14,1,90,90,-0.09266,17,1,19129,-0.23166,-0.02317,1,0,1,1,0,0,0,1,-0.0579133333333333,"-1",1,0,"1"
"167",1891,4,2,90,180,-0.37,-0.23,0.14,1,180,90,-0.139,19,1,19129,0.37065,-0.046335,0,1,0,0,0,0,0,0,-0.28957875,"1",-1,1,"-1"
"169",2442,1,2,180,180,0.14,0.09,0.37,1,180,180,0.04633,21,1,19129,0.27799,0.231655,0,0,1,1,1,0,0,1,0.0810766666666667,"1",1,1,"-1"
"170",1974,1,2,180,90,0.28,-0.09,-0.23,1,90,180,0.37065,22,1,19129,-0.139,-0.16216,1,0,0,0,1,0,0,0,0.297848571428571,"-1",-1,0,"1"
"171",2340,3,2,0,0,0.28,0.19,-0.19,1,0,0,0.09266,23,1,19129,-0.37066,0,0,1,1,1,0,0,0,1,0.0579175,"-1",1,1,"-1"
"172",2464,1,2,0,180,0.19,0.28,0.05,1,180,0,-0.09266,24,1,19129,-0.23166,0.16216,0,0,0,0,1,0,0,0,0.032437,"1",1,1,"-1"
"173",1948,3,1,180,0,0.37,0.23,0.23,1,180,0,0.139,25,1,19129,0,0.23166,0,1,0,0,1,1,0,0,0.216213333333333,"1",1,1,"-1"
"174",1975,3,2,90,270,0.42,0.37,-0.37,1,270,90,0.04633,26,1,19129,-0.74131,-0.000005000000000005,1,1,0,0,0,0,0,0,0.074135,"-1",1,1,"1"
"175",1746,2,2,90,0,-0.19,-0.09,0.37,1,0,90,-0.09266,27,1,19129,0.46331,0.138995,0,0,0,0,0,0,0,0,-0.165471428571429,"1",-1,1,"-1"
"177",1752,3,1,180,90,-0.19,-0.42,0.46,1,180,90,0.23166,29,1,19129,0.88031,0.023165,0,1,0,0,0,0,0,0,0.0154411111111111,"1",-1,1,"-1"
"178",1703,4,2,270,180,0.42,0.37,0.05,1,180,270,0.04633,30,1,19129,-0.32432,0.20849,0,1,0,0,1,0,0,0,0.074135,"1",1,1,"-1"
"180",2308,3,1,180,0,0.42,0.23,0.23,1,180,0,0.18533,32,1,19129,0,0.23166,0,1,0,0,1,1,0,0,0.262553333333333,"1",1,1,"-1"
"182",1349,3,2,180,270,-0.37,-0.09,-0.28,1,270,180,-0.27799,34,1,19129,-0.18533,-0.185325,1,1,0,0,1,0,0,0,-0.350801428571429,"-1",-1,1,"1"
"183",1914,3,1,180,90,0.19,-0.28,-0.42,1,180,90,0.46332,35,1,19129,-0.139,-0.34749,0,1,0,0,1,0,0,0,0.33011625,"-1",-1,0,"-1"
"184",2214,2,2,90,0,-0.14,0.09,0.46,1,0,90,-0.23166,36,1,19129,0.37066,0.27799,0,0,0,0,1,0,0,0,-0.196913333333333,"1",1,0,"-1"
"185",1859,3,1,90,180,0.32,0.28,0.28,1,90,180,0.04633,37,1,19129,0,0.27799,1,1,0,0,1,1,0,0,0.171427,"1",1,1,"1"
"186",1842,3,2,270,270,0.28,0.46,-0.28,1,270,270,-0.18533,38,1,19129,-0.74131,0.092665,1,1,1,1,0,0,0,1,-0.054055,"-1",1,1,"1"
"187",2212,4,2,270,90,-0.28,-0.32,0.19,1,90,270,0.04633,39,1,19129,0.50965,-0.069495,1,1,0,0,0,0,0,0,-0.165468571428571,"1",-1,1,"1"
"188",2657,1,1,270,0,0.32,0.46,0.46,1,270,0,-0.139,40,1,19129,0,0.46332,1,0,0,0,1,1,0,1,-0.00772500000000004,"1",1,1,"1"
"189",2848,4,1,0,90,-0.32,-0.37,-0.37,1,0,90,0.04633,41,1,19129,0,-0.37066,0,1,0,0,1,1,0,0,-0.130568181818182,"-1",-1,1,"-1"
"190",3738,4,1,0,180,-0.37,-0.32,-0.32,1,0,180,-0.04633,42,1,19129,0,-0.32432,0,1,0,0,1,1,0,0,-0.258138571428571,"-1",-1,1,"-1"
"192",2779,2,1,270,180,0.32,0.05,0.05,1,270,180,0.27799,44,1,19129,0,0.04633,1,0,0,0,1,1,0,0,0.166794,"1",1,1,"1"
"193",1697,2,2,180,90,-0.37,0.28,0.23,1,90,180,-0.64865,45,1,19129,-0.04633,0.254825,1,0,0,0,1,0,0,0,-0.523553,"1",1,0,"1"
"194",3140,4,2,90,270,0.23,0.42,-0.09,1,270,90,-0.18533,46,1,19129,-0.50965,0.162165,1,1,0,0,0,0,0,0,0.046335,"-1",1,1,"1"
"196",3376,4,1,0,0,0.28,0.28,-0.23,1,0,0,0,48,1,19129,-0.50965,0.023165,0,1,1,1,0,0,0,1,0.125097,"-1",1,1,"-1"
"197",1958,2,2,270,180,0.19,-0.37,-0.19,1,180,270,0.55598,49,1,19129,0.18533,-0.277995,0,0,0,0,1,0,0,0,0.379081818181818,"-1",-1,0,"-1"
"202",3862,3,1,180,0,0.28,0.42,0.42,1,180,0,-0.139,54,1,19129,0,0.41699,0,1,0,0,1,1,0,0,0.092665,"1",1,1,"-1"
"203",1495,3,1,0,270,0.32,0.09,0.14,1,0,270,0.23166,55,1,19129,0.04633,0.115825,0,1,0,0,1,0,0,1,0.266406666666667,"1",1,1,"-1"
"205",1584,2,2,0,180,0.37,-0.05,0.42,1,180,0,0.41699,57,1,19129,0.46332,0.18533,0,0,0,0,0,0,0,0,0.463314,"1",-1,0,"-1"
"206",3441,4,2,0,90,0.05,0.32,0.32,1,90,0,-0.27799,58,1,19129,0,0.32432,1,1,0,0,1,1,0,0,-0.0308888888888889,"1",1,1,"1"
"207",1761,4,1,180,180,0.23,0,0.09,1,180,180,0.23166,59,1,19129,0.09266,0.04633,0,1,1,1,0,0,0,1,0.123553333333333,"1",0,0,"-1"
"208",1594,2,1,90,90,-0.28,-0.05,0.42,1,90,90,-0.23166,60,1,19129,0.46332,0.18533,1,0,1,1,0,0,0,1,-0.185326,"1",-1,1,"1"
"209",1983,2,1,180,180,0.05,0.23,-0.19,1,180,180,-0.18533,61,1,19129,-0.41699,0.023165,0,0,1,1,0,0,0,1,-0.108106666666667,"-1",1,1,"-1"
"210",2768,3,2,0,180,0.37,0.46,-0.05,1,180,0,-0.09266,62,1,19129,-0.50965,0.208495,0,1,0,0,0,0,0,0,0.0386049999999999,"-1",1,1,"-1"
"217",1999,2,1,0,270,-0.32,-0.37,0.19,1,0,270,0.04633,69,1,19129,0.55599,-0.092665,0,0,0,0,0,0,0,1,-0.130568181818182,"1",-1,1,"-1"
"220",2000,4,1,270,90,-0.32,-0.05,-0.28,1,270,90,-0.27799,72,1,19129,-0.23166,-0.16216,1,1,0,0,1,0,0,0,-0.231656,"-1",-1,1,"1"
"221",2746,4,1,180,270,0.32,0.37,0.37,1,180,270,-0.04633,73,1,19129,0,0.37065,0,1,0,0,1,1,0,0,-0.018535,"1",1,1,"-1"
"223",2281,3,2,90,270,0.14,0.28,0.28,1,270,90,-0.139,75,1,19129,0,0.27799,1,1,0,0,1,1,0,0,-0.013903,"1",1,1,"1"
"224",2980,2,2,270,270,0.32,-0.14,-0.19,1,270,270,0.46332,76,1,19129,-0.04633,-0.162165,1,0,1,1,1,0,0,1,0.480164545454545,"-1",-1,0,"1"
"226",2541,3,2,90,0,-0.32,-0.19,0.46,1,0,90,-0.139,78,1,19129,0.64865,0.138995,0,1,0,0,0,0,0,0,-0.454046,"1",-1,1,"-1"
"228",1958,2,1,0,180,0,-0.14,0.23,1,0,180,0.139,80,1,19129,0.37066,0.04633,0,0,0,0,0,0,0,0,0.155844545454545,"1",-1,0,"-1"
"229",2179,2,1,90,90,-0.32,-0.14,-0.42,1,90,90,-0.18533,81,1,19129,-0.27799,-0.277995,1,0,1,1,1,0,0,1,-0.168475454545455,"-1",-1,1,"1"
"230",1907,3,2,180,0,-0.23,0,0.46,1,0,180,-0.23166,82,1,19129,0.46332,0.23166,0,1,0,0,0,0,0,0,-0.339766666666667,"1",0,0,"-1"
"231",1751,2,2,90,180,-0.37,-0.23,-0.46,1,180,90,-0.139,83,1,19129,-0.23166,-0.34749,0,0,0,0,1,0,0,0,-0.28957875,"-1",-1,1,"-1"
"232",2150,3,2,180,180,-0.32,-0.28,0.37,1,180,180,-0.04633,84,1,19129,0.64864,0.04633,0,1,1,1,0,0,0,1,-0.17953375,"1",-1,1,"-1"
"233",5628,2,1,180,270,-0.14,-0.42,0.28,1,180,270,0.27799,85,1,19129,0.69498,-0.0695,0,0,0,0,0,0,0,0,0.0617711111111111,"1",-1,1,"-1"
"234",2149,4,1,270,180,0.32,-0.42,0.42,1,270,180,0.74131,86,1,19129,0.83398,0,1,1,0,0,0,0,0,0,0.525091111111111,"1",-1,0,"1"
"235",2233,1,2,270,0,0.23,-0.19,-0.46,1,0,270,0.41699,87,1,19129,-0.27799,-0.324325,0,0,0,0,1,0,0,1,0.101934,"-1",-1,0,"-1"
"236",2700,4,2,180,90,0.42,0.37,-0.28,1,90,180,0.04633,88,1,19129,-0.64864,0.04633,1,1,0,0,0,0,0,0,0.074135,"-1",1,1,"1"
"237",2176,2,1,90,90,-0.37,-0.37,0.09,1,90,90,0,89,1,19129,0.46332,-0.139,1,0,1,1,0,0,0,1,-0.176908181818182,"1",-1,1,"1"
"238",1694,4,1,180,0,-0.37,-0.46,-0.05,1,180,0,0.09266,90,1,19129,0.41699,-0.254825,0,1,0,0,1,0,0,0,0.0173725,"-1",-1,1,"-1"
"240",1942,4,1,90,270,-0.46,-0.37,-0.23,1,90,270,-0.09266,92,1,19129,0.139,-0.30116,1,1,0,0,1,0,0,0,-0.269568181818182,"-1",-1,1,"1"
"242",2269,2,1,180,270,0.28,0.32,-0.46,1,180,270,-0.04633,94,1,19129,-0.78764,-0.0695,0,0,0,0,0,0,0,0,0.200771111111111,"-1",1,1,"-1"
"245",3415,3,1,270,270,-0.37,0.09,-0.23,1,270,270,-0.46332,97,1,19129,-0.32432,-0.0695,1,1,1,1,0,0,0,1,-0.428573333333333,"-1",1,0,"1"
"246",3080,4,1,0,270,0.28,0.46,0.46,1,0,270,-0.18533,98,1,19129,0,0.46332,0,1,0,0,1,1,0,1,-0.054055,"1",1,1,"-1"
"247",3963,1,1,0,180,-0.23,-0.32,-0.28,1,0,180,0.09266,99,1,19129,0.04633,-0.301155,0,0,0,0,1,0,0,0,-0.119138571428571,"-1",-1,1,"-1"
"248",2974,3,2,270,180,0.28,0.14,0.19,1,180,270,0.139,100,1,19129,0.04634,0.16216,0,1,0,0,1,0,0,0,0.08108,"1",1,1,"-1"
"249",2339,4,2,0,0,0.37,0.09,-0.42,1,0,0,0.27799,101,1,19129,-0.50965,-0.162165,0,1,1,1,0,0,0,1,0.312736666666667,"-1",1,1,"-1"
"251",3527,4,2,0,180,-0.32,-0.28,0.19,1,180,0,-0.04633,103,1,19129,0.46332,-0.04633,0,1,0,0,0,0,0,0,-0.17953375,"1",-1,1,"-1"
"253",1875,4,1,180,180,0.42,0.14,0.14,1,180,180,0.27799,105,1,19129,0,0.13899,0,1,1,1,1,1,0,1,0.22008,"1",1,1,"-1"
"254",2312,4,1,90,0,-0.51,-0.46,0.05,1,90,0,-0.04633,106,1,19129,0.50965,-0.208495,1,1,0,0,0,0,0,0,-0.1216175,"1",-1,1,"1"
"255",3297,3,2,90,0,-0.46,-0.46,0.37,1,0,90,0,107,1,19129,0.83397,-0.046335,0,1,0,0,0,0,0,0,-0.0752875,"1",-1,1,"-1"
"256",2173,1,2,90,0,0.37,0.19,0.19,1,0,90,0.18533,108,1,19129,0,0.18533,0,0,0,0,1,1,0,0,0.1505775,"1",1,1,"-1"
"257",2140,2,2,270,270,-0.09,0.14,0.14,1,270,270,-0.23166,109,1,19129,0,0.13899,1,0,1,1,1,1,0,1,-0.28957,"1",1,0,"1"
"258",3318,4,1,180,180,0.37,0.19,0.19,1,180,180,0.18533,110,1,19129,0,0.18533,0,1,1,1,1,1,0,1,0.1505775,"1",1,1,"-1"
"261",2092,4,2,0,90,0.42,0.14,0,1,90,0,0.27799,113,1,19129,-0.13899,0.069495,1,1,0,0,0,0,0,0,0.22008,"0",1,1,"1"
"262",2395,3,1,90,90,-0.37,-0.05,0.05,1,90,90,-0.32432,114,1,19129,0.09266,0,1,1,1,1,0,0,0,1,-0.277996,"1",-1,1,"1"
"263",3257,3,1,0,270,0.14,-0.19,-0.32,1,0,270,0.32432,115,1,19129,-0.13899,-0.254825,0,1,0,0,1,0,0,1,0.00926399999999999,"-1",-1,0,"-1"
"264",2572,4,2,90,270,0.32,0.32,0.46,1,270,90,0,116,1,19129,0.139,0.39382,1,1,0,0,1,0,0,0,0.247101111111111,"1",1,1,"1"
"265",2012,2,2,180,0,0.32,0.19,-0.23,1,0,180,0.139,117,1,19129,-0.41699,-0.023165,0,0,0,0,0,0,0,0,0.1042475,"-1",1,1,"-1"
"266",2828,4,1,90,180,0.19,0,0.46,1,90,180,0.18533,118,1,19129,0.46332,0.23166,1,1,0,0,0,0,0,0,0.0772233333333333,"1",0,0,"1"
"267",2527,1,1,0,0,-0.32,-0.42,-0.09,1,0,0,0.09266,119,1,19129,0.32433,-0.254825,0,0,1,1,1,0,0,1,-0.123548888888889,"-1",-1,1,"-1"
"268",2268,4,1,0,270,-0.19,0,-0.37,1,0,270,-0.18533,120,1,19129,-0.37066,-0.18533,0,1,0,0,0,0,0,1,-0.293436666666667,"-1",0,0,"-1"
"269",4156,4,2,90,180,0.37,0.14,0.14,1,180,90,0.23166,121,1,19129,0,0.13899,0,1,0,0,1,1,0,0,0.17374,"1",1,1,"-1"
"270",4107,4,2,180,270,0.05,-0.42,-0.28,1,270,180,0.46332,122,1,19129,0.139,-0.34749,1,1,0,0,1,0,0,0,0.247101111111111,"-1",-1,0,"1"
"271",2890,4,1,0,180,-0.05,0.05,-0.19,1,0,180,-0.09266,123,1,19129,-0.23166,-0.0695,0,1,0,0,0,0,0,0,-0.203856,"-1",1,0,"-1"
"273",4760,4,2,180,0,0.09,-0.37,-0.23,1,0,180,0.46332,125,1,19129,0.139,-0.30116,0,1,0,0,1,0,0,0,0.286411818181818,"-1",-1,0,"-1"
"275",1927,1,1,0,90,0.37,0.42,-0.28,1,0,90,-0.04633,127,1,19129,-0.69498,0.0695,0,0,0,0,0,0,0,0,0.185325,"-1",1,1,"-1"
"276",2169,3,2,0,270,-0.42,-0.46,-0.14,1,270,0,0.04633,128,1,19129,0.32432,-0.30116,1,1,0,0,1,0,0,1,-0.0289575,"-1",-1,1,"1"
"279",2563,4,2,90,90,0.28,-0.19,-0.32,1,90,90,0.46332,131,1,19129,-0.13899,-0.254825,1,1,1,1,1,0,0,1,0.148264,"-1",-1,0,"1"
"280",2335,3,1,180,180,0.19,0.14,0.05,1,180,180,0.04633,132,1,19129,-0.09266,0.09266,0,1,1,1,1,0,0,1,-0.01158,"1",1,1,"-1"
"283",3181,2,1,180,270,0.19,0,0,1,180,270,0.18533,135,1,19129,0,0,0,0,0,0,1,1,0,0,0.0772233333333333,"0",0,0,"-1"
"284",2652,3,1,180,0,-0.37,-0.46,0.05,1,180,0,0.09266,136,1,19129,0.50965,-0.208495,0,1,0,0,0,0,0,0,0.0173725,"1",-1,1,"-1"
"285",3530,3,1,0,180,0.19,-0.05,-0.05,1,0,180,0.23166,137,1,19129,0,-0.04633,0,1,0,0,1,1,0,0,0.277994,"-1",-1,0,"-1"
"287",2324,2,1,180,0,-0.32,-0.09,0.32,1,180,0,-0.23166,139,1,19129,0.41698,0.11583,0,0,0,0,0,0,0,0,-0.304461428571429,"1",-1,1,"-1"
"288",2369,4,1,90,0,-0.42,0.32,0.32,1,90,0,-0.74131,140,1,19129,0,0.32432,1,1,0,0,1,1,0,0,-0.494208888888889,"1",1,0,"1"
"289",4709,3,2,270,270,-0.28,-0.09,-0.09,1,270,270,-0.18533,141,1,19129,0,-0.09266,1,1,1,1,1,1,0,1,-0.258131428571429,"-1",-1,1,"1"
"290",2951,4,2,270,90,0.37,0.37,0.19,1,90,270,0,142,1,19129,-0.18532,0.27799,1,1,0,0,1,0,0,0,0.027795,"1",1,1,"1"
"291",2840,4,1,90,90,0.32,0.09,0.23,1,90,90,0.23166,143,1,19129,0.139,0.16216,1,1,1,1,1,0,0,1,0.266406666666667,"1",1,1,"1"
"292",4341,1,2,270,90,-0.28,-0.23,0.37,1,90,270,-0.04633,144,1,19129,0.60231,0.069495,1,0,0,0,0,0,0,0,-0.19690875,"1",-1,1,"1"
"293",2451,3,1,270,0,-0.46,-0.37,0.28,1,270,0,-0.09266,145,1,19129,0.64865,-0.046335,1,1,0,0,0,0,0,1,-0.269568181818182,"1",-1,1,"1"
"295",2213,4,2,0,0,0.23,0.42,0.09,1,0,0,-0.18533,0,2,19129,-0.32433,0.254825,0,1,1,1,1,0,0,1,0.046335,"1",1,1,"-1"
"296",2694,2,2,270,180,-0.28,-0.37,0.32,1,180,270,0.09266,1,2,19129,0.69498,-0.02317,0,0,0,0,0,0,0,0,-0.0842381818181818,"1",-1,1,"-1"
"297",1460,4,1,270,180,-0.32,-0.28,-0.28,1,270,180,-0.04633,2,2,19129,0,-0.27799,1,1,0,0,1,1,0,0,-0.17953375,"-1",-1,1,"1"
"299",2140,1,1,0,0,-0.32,-0.14,-0.14,1,0,0,-0.18533,4,2,19129,0,-0.139,0,0,1,1,1,1,0,1,-0.168475454545455,"-1",-1,1,"-1"
"300",4640,3,2,180,180,0.32,0.28,0.42,1,180,180,0.04633,5,2,19129,0.139,0.34749,0,1,1,1,1,0,0,1,0.171427,"1",1,1,"-1"
"301",1631,3,1,180,180,-0.42,-0.42,0.46,1,180,180,0,6,2,19129,0.88031,0.023165,0,1,1,1,0,0,0,1,-0.216218888888889,"1",-1,1,"-1"
"302",1728,3,2,0,0,-0.23,0.05,0.23,1,0,0,-0.27799,7,2,19129,0.18533,0.138995,0,1,1,1,1,0,0,1,-0.389186,"1",1,0,"-1"
"303",3047,3,2,180,90,0.28,-0.37,-0.28,1,90,180,0.64865,8,2,19129,0.09267,-0.324325,1,1,0,0,1,0,0,0,0.471741818181818,"-1",-1,0,"1"
"304",1824,2,1,0,90,0.05,0.19,0.37,1,0,90,-0.139,9,2,19129,0.18532,0.27799,0,0,0,0,1,0,0,0,-0.1737425,"1",1,1,"-1"
"305",1512,4,1,90,0,0.28,0.19,0.19,1,90,0,0.09266,10,2,19129,0,0.18533,1,1,0,0,1,1,0,0,0.0579175,"1",1,1,"1"
"306",3802,4,2,180,180,0.46,0.37,0.14,1,180,180,0.09266,11,2,19129,-0.23166,0.25482,0,1,1,1,1,0,0,1,0.120465,"1",1,1,"-1"
"307",1551,2,2,270,180,-0.09,0.14,-0.09,1,180,270,-0.23166,12,2,19129,-0.23165,0.023165,0,0,0,0,0,0,0,0,-0.28957,"-1",1,0,"-1"
"308",2656,3,2,0,180,-0.37,-0.23,-0.23,1,180,0,-0.139,13,2,19129,0,-0.23166,0,1,0,0,1,1,0,0,-0.28957875,"-1",-1,1,"-1"
"311",2352,1,2,180,270,-0.28,-0.28,-0.09,1,270,180,0,16,2,19129,0.18533,-0.185325,1,0,0,0,1,0,0,0,-0.13320375,"-1",-1,1,"1"
"312",1507,2,2,180,180,-0.37,-0.42,0.42,1,180,180,0.04633,17,2,19129,0.83398,0,0,0,1,1,0,0,0,1,-0.169888888888889,"1",-1,1,"-1"
"314",2536,1,2,0,0,0.32,0.23,0.32,1,0,0,0.09266,19,2,19129,0.09266,0.27799,0,0,1,1,1,0,0,1,0.169883333333333,"1",1,1,"-1"
"315",3306,1,1,90,180,0.14,-0.19,0.14,1,90,180,0.32432,20,2,19129,0.32432,-0.02317,1,0,0,0,0,0,0,0,0.00926399999999999,"1",-1,0,"1"
"316",1919,4,2,270,90,-0.37,-0.19,0.42,1,90,270,-0.18533,21,2,19129,0.60232,0.11583,1,1,0,0,0,0,0,0,-0.500386,"1",-1,1,"1"
"318",2096,3,1,270,0,0.28,-0.23,0.19,1,270,0,0.50965,23,2,19129,0.41699,-0.023165,1,1,0,0,0,0,0,1,0.35907125,"1",-1,0,"1"
"319",1708,4,2,180,90,-0.28,-0.28,-0.42,1,90,180,0,24,2,19129,-0.139,-0.34749,1,1,0,0,1,0,0,0,-0.13320375,"-1",-1,1,"1"
"322",1874,4,2,270,0,-0.09,-0.23,-0.28,1,0,270,0.139,27,2,19129,-0.04633,-0.254825,0,1,0,0,1,0,0,1,-0.01157875,"-1",-1,1,"-1"
"323",1583,3,1,90,180,-0.37,-0.46,-0.32,1,90,180,0.09266,28,2,19129,0.139,-0.39382,1,1,0,0,1,0,0,0,0.0173725,"-1",-1,1,"1"
"325",1543,1,2,180,0,0.37,0.19,0.19,1,0,180,0.18533,30,2,19129,0,0.18533,0,0,0,0,1,1,0,0,0.1505775,"1",1,1,"-1"
"326",2382,2,1,90,180,-0.46,-0.32,0,1,90,180,-0.139,31,2,19129,0.32432,-0.16216,1,0,0,0,0,0,0,0,-0.350798571428571,"0",-1,1,"1"
"327",3369,4,1,180,0,-0.23,-0.32,-0.32,1,180,0,0.09266,32,2,19129,0,-0.32432,0,1,0,0,1,1,0,0,-0.119138571428571,"-1",-1,1,"-1"
"329",2301,1,1,0,270,0.09,0.23,0.23,1,0,270,-0.139,34,2,19129,0,0.23166,0,0,0,0,1,1,0,1,-0.0617766666666667,"1",1,1,"-1"
"330",1871,4,2,270,90,-0.19,0,0,1,90,270,-0.18533,35,2,19129,0,0,1,1,0,0,1,1,0,0,-0.293436666666667,"0",0,0,"1"
"331",1743,2,1,270,90,-0.46,-0.23,0,1,270,90,-0.23166,36,2,19129,0.23166,-0.11583,1,0,0,0,0,0,0,0,-0.38223875,"0",-1,1,"1"
"333",1400,3,1,0,270,-0.23,0.09,0.37,1,0,270,-0.32432,38,2,19129,0.27799,0.231655,0,1,0,0,1,0,0,1,-0.289573333333333,"1",1,0,"-1"
"334",1823,4,1,270,270,0.46,0.23,-0.46,1,270,270,0.23166,39,2,19129,-0.69498,-0.11583,1,1,1,1,0,0,0,1,0.308883333333333,"-1",1,1,"1"
"335",3413,3,2,270,270,-0.28,-0.14,-0.46,1,270,270,-0.139,40,2,19129,-0.32432,-0.30116,1,1,1,1,1,0,0,1,-0.122145454545455,"-1",-1,1,"1"
"338",2048,4,1,180,0,-0.32,-0.37,-0.37,1,180,0,0.04633,43,2,19129,0,-0.37066,0,1,0,0,1,1,0,0,-0.130568181818182,"-1",-1,1,"-1"
"339",1925,4,2,180,270,-0.32,0.09,-0.42,1,270,180,-0.41699,44,2,19129,-0.50965,-0.162165,1,1,0,0,0,0,0,0,-0.382233333333333,"-1",1,0,"1"
"340",1793,4,1,180,180,0.32,0.09,-0.05,1,180,180,0.23166,45,2,19129,-0.13899,0.023165,0,1,1,1,0,0,0,1,0.266406666666667,"-1",1,1,"-1"
"341",2069,4,1,0,0,0.19,0.28,0.28,1,0,0,-0.09266,46,2,19129,0,0.27799,0,1,1,1,1,1,0,1,0.032437,"1",1,1,"-1"
"345",2274,2,2,270,180,0.23,0.19,-0.05,1,180,270,0.04633,50,2,19129,-0.23166,0.0695,0,0,0,0,0,0,0,0,0.0115875,"-1",1,1,"-1"
"346",2060,4,1,180,180,0.14,0.05,-0.14,1,180,180,0.09266,51,2,19129,-0.18533,-0.046335,0,1,1,1,0,0,0,1,-0.018536,"-1",1,1,"-1"
"349",2647,3,2,270,180,0.32,0.14,-0.42,1,180,270,0.18533,54,2,19129,-0.55598,-0.139,0,1,0,0,0,0,0,0,0.12741,"-1",1,1,"-1"
"350",6108,1,1,0,270,-0.28,0.46,-0.19,1,0,270,-0.74131,55,2,19129,-0.64865,0.138995,0,0,0,0,0,0,0,1,-0.610035,"-1",1,0,"-1"
"351",1947,3,2,90,270,0.42,0.28,-0.37,1,270,90,0.139,56,2,19129,-0.64865,-0.046335,1,1,0,0,0,0,0,0,0.264097,"-1",1,1,"1"
"352",1905,4,1,0,270,0.28,0,0.14,1,0,270,0.27799,57,2,19129,0.13899,0.069495,0,1,0,0,0,0,0,1,0.169883333333333,"1",0,0,"-1"
"354",2378,3,2,180,270,-0.23,-0.42,0.23,1,270,180,0.18533,59,2,19129,0.64865,-0.092665,1,1,0,0,0,0,0,0,-0.0308888888888889,"1",-1,1,"1"
"355",1791,4,1,180,270,0.37,0.42,0.42,1,180,270,-0.04633,60,2,19129,0,0.41699,0,1,0,0,1,1,0,0,0.185325,"1",1,1,"-1"
"358",1874,4,2,90,0,0.28,0.46,0.19,1,0,90,-0.18533,63,2,19129,-0.27799,0.324325,0,1,0,0,1,0,0,0,-0.054055,"1",1,1,"-1"
"359",1565,3,1,90,180,0.32,0.32,-0.46,1,90,180,0,64,2,19129,-0.78764,-0.0695,1,1,0,0,0,0,0,0,0.247101111111111,"-1",1,1,"1"
"360",1763,4,1,180,270,0,-0.23,-0.05,1,180,270,0.23166,65,2,19129,0.18533,-0.138995,0,1,0,0,1,0,0,0,0.08108125,"-1",-1,0,"-1"
"361",2535,2,2,0,0,-0.23,-0.42,-0.09,1,0,0,0.18533,66,2,19129,0.32433,-0.254825,0,0,1,1,1,0,0,1,-0.0308888888888889,"-1",-1,1,"-1"
"363",2308,4,1,90,90,0.32,0.28,-0.28,1,90,90,0.04633,68,2,19129,-0.55598,0,1,1,1,1,0,0,0,1,0.171427,"-1",1,1,"1"
"366",1898,4,1,270,0,-0.23,-0.23,-0.19,1,270,0,0,71,2,19129,0.04633,-0.208495,1,1,0,0,1,0,0,1,-0.15057875,"-1",-1,1,"1"
"367",2357,3,1,90,270,0,0.14,0.09,1,90,270,-0.139,72,2,19129,-0.04633,0.115825,1,1,0,0,1,0,0,0,-0.19691,"1",1,0,"1"
"368",1708,3,1,180,0,0.14,-0.05,-0.05,1,180,0,0.18533,73,2,19129,0,-0.04633,0,1,0,0,1,1,0,0,0.231654,"-1",-1,0,"-1"
"370",1693,1,1,180,180,0.14,-0.14,-0.09,1,180,180,0.27799,75,2,19129,0.04634,-0.11583,0,0,1,1,1,0,0,1,0.294834545454545,"-1",-1,0,"-1"
"371",1499,2,1,0,90,-0.32,-0.32,0.46,1,0,90,0,76,2,19129,0.78764,0.0695,0,0,0,0,0,0,0,0,-0.211798571428571,"1",-1,1,"-1"
"375",1788,1,1,180,180,0.46,0.37,0.37,1,180,180,0.09266,80,2,19129,0,0.37065,0,0,1,1,1,1,0,1,0.120465,"1",1,1,"-1"
"377",1425,2,2,270,180,0.14,0.14,0.09,1,180,270,0,82,2,19129,-0.04633,0.115825,0,0,0,0,1,0,0,0,-0.05792,"1",1,1,"-1"
"379",1602,3,2,0,0,0.19,-0.05,0.19,1,0,0,0.23166,84,2,19129,0.23166,0.0695,0,1,1,1,0,0,0,1,0.277994,"1",-1,0,"-1"
"380",1725,2,2,90,0,-0.28,0.14,0.28,1,0,90,-0.41699,85,2,19129,0.139,0.20849,0,0,0,0,1,0,0,0,-0.4749,"1",1,0,"-1"
"382",1775,1,2,90,90,-0.37,0.46,-0.09,1,90,90,-0.83397,87,2,19129,-0.55598,0.18533,1,0,1,1,0,0,0,1,-0.702705,"-1",1,0,"1"
"383",1613,4,1,180,90,0.23,0.05,0,1,180,90,0.18533,88,2,19129,-0.04633,0.023165,0,1,0,0,0,0,0,0,0.074134,"0",1,1,"-1"
"384",1515,4,2,270,270,0.23,0.32,0.14,1,270,270,-0.09266,89,2,19129,-0.18533,0.231655,1,1,1,1,1,0,0,1,0.154441111111111,"1",1,1,"1"
"385",1251,4,1,270,270,-0.46,-0.46,-0.46,1,270,270,0,90,2,19129,0,-0.46332,1,1,1,1,1,1,0,1,-0.0752875,"-1",-1,1,"1"
"386",2353,4,2,0,0,0.32,0.05,-0.05,1,0,0,0.27799,91,2,19129,-0.09266,0,0,1,1,1,0,0,0,1,0.166794,"-1",1,1,"-1"
"387",1692,4,2,270,270,-0.37,0.23,0.23,1,270,270,-0.60231,92,2,19129,0,0.23166,1,1,1,1,1,1,0,1,-0.525096666666667,"1",1,0,"1"
"388",2312,2,2,180,180,0.37,-0.09,0.14,1,180,180,0.46332,93,2,19129,0.23165,0.023165,0,0,1,1,0,0,0,1,0.390508571428571,"1",-1,0,"-1"
"389",2393,4,2,90,0,-0.19,0.05,0.46,1,0,90,-0.23166,94,2,19129,0.41699,0.254825,0,1,0,0,1,0,0,0,-0.342856,"1",1,0,"-1"
"390",1885,2,1,180,0,0.23,-0.28,-0.28,1,180,0,0.50965,95,2,19129,0,-0.27799,0,0,0,0,1,1,0,0,0.37644625,"-1",-1,0,"-1"
"391",1775,3,2,180,0,-0.32,-0.46,-0.14,1,0,180,0.139,96,2,19129,0.32432,-0.30116,0,1,0,0,1,0,0,0,0.0637125,"-1",-1,1,"-1"
"392",3068,4,1,0,90,-0.23,-0.05,0.32,1,0,90,-0.18533,97,2,19129,0.37065,0.138995,0,1,0,0,0,0,0,0,-0.138996,"1",-1,1,"-1"
"393",1843,2,1,180,90,0.28,0.23,0.32,1,180,90,0.04633,98,2,19129,0.09266,0.27799,0,0,0,0,1,0,0,0,0.123553333333333,"1",1,1,"-1"
"394",2240,3,1,0,0,-0.19,-0.14,0.23,1,0,0,-0.04633,99,2,19129,0.37066,0.04633,0,1,1,1,0,0,0,1,-0.0294854545454545,"1",-1,1,"-1"
"395",1459,4,1,270,0,0.23,0.28,0.46,1,270,0,-0.04633,100,2,19129,0.18533,0.370655,1,1,0,0,1,0,0,1,0.078767,"1",1,1,"1"
"396",1872,4,1,0,270,0,-0.14,0.28,1,0,270,0.139,101,2,19129,0.41699,0.069495,0,1,0,0,0,0,0,1,0.155844545454545,"1",-1,0,"-1"
"397",1371,3,1,270,180,0.32,0.05,-0.23,1,270,180,0.27799,102,2,19129,-0.27799,-0.092665,1,1,0,0,0,0,0,0,0.166794,"-1",1,1,"1"
"398",1672,3,2,90,90,-0.14,0.42,0.37,1,90,90,-0.55598,103,2,19129,-0.04634,0.39382,1,1,1,1,1,0,0,1,-0.324325,"1",1,0,"1"
"399",3080,2,2,0,0,0.46,0.42,-0.37,1,0,0,0.04633,104,2,19129,-0.78765,0.023165,0,0,1,1,0,0,0,1,0.277995,"-1",1,1,"-1"
"401",1462,4,1,90,270,0.37,-0.09,-0.09,1,90,270,0.46332,106,2,19129,0,-0.09266,1,1,0,0,1,1,0,0,0.390508571428571,"-1",-1,0,"1"
"402",2025,3,1,180,0,0,-0.14,-0.32,1,180,0,0.139,107,2,19129,-0.18532,-0.23166,0,1,0,0,1,0,0,0,0.155844545454545,"-1",-1,0,"-1"
"406",3649,2,1,270,0,-0.42,-0.46,-0.32,1,270,0,0.04633,111,2,19129,0.139,-0.39382,1,0,0,0,1,0,0,1,-0.0289575,"-1",-1,1,"1"
"407",3086,2,1,180,180,0.23,-0.32,-0.05,1,180,180,0.55598,112,2,19129,0.27799,-0.185325,0,0,1,1,1,0,0,1,0.344181428571429,"-1",-1,0,"-1"
"408",2137,3,2,180,90,-0.14,0.32,-0.05,1,90,180,-0.46332,113,2,19129,-0.37065,0.138995,1,1,0,0,0,0,0,0,-0.216218888888889,"-1",1,0,"1"
"409",1584,3,2,0,90,-0.23,-0.14,-0.14,1,90,0,-0.09266,114,2,19129,0,-0.139,1,1,0,0,1,1,0,0,-0.0758154545454545,"-1",-1,1,"1"
"411",2101,3,1,0,180,0.32,0,0,1,0,180,0.32432,116,2,19129,0,0,0,1,0,0,1,1,0,0,0.216213333333333,"0",0,0,"-1"
"412",3817,4,1,270,180,0.32,0.19,0.05,1,270,180,0.139,117,2,19129,-0.139,0.11583,1,1,0,0,1,0,0,0,0.1042475,"1",1,1,"1"
"413",2582,3,2,0,90,-0.32,-0.14,0.37,1,90,0,-0.18533,118,2,19129,0.50965,0.115825,1,1,0,0,0,0,0,0,-0.168475454545455,"1",-1,1,"1"
"414",3650,4,1,90,270,0.46,0.32,0.46,1,90,270,0.139,119,2,19129,0.139,0.39382,1,1,0,0,1,0,0,0,0.386101111111111,"1",1,1,"1"
"415",1632,2,1,180,90,-0.28,-0.37,-0.19,1,180,90,0.09266,120,2,19129,0.18533,-0.277995,0,0,0,0,1,0,0,0,-0.0842381818181818,"-1",-1,1,"-1"
"417",1727,4,2,90,0,0.19,0.37,0.37,1,0,90,-0.18533,122,2,19129,0,0.37065,0,1,0,0,1,1,0,0,-0.157525,"1",1,1,"-1"
"419",2161,4,1,90,180,0.37,0.14,0.28,1,90,180,0.23166,124,2,19129,0.139,0.20849,1,1,0,0,1,0,0,0,0.17374,"1",1,1,"1"
"420",1730,4,1,180,0,0.42,0.37,-0.19,1,180,0,0.04633,125,2,19129,-0.55598,0.09266,0,1,0,0,0,0,0,0,0.074135,"-1",1,1,"-1"
"421",2641,4,1,180,180,-0.09,-0.23,0.37,1,180,180,0.139,126,2,19129,0.60231,0.069495,0,1,1,1,0,0,0,1,-0.01157875,"1",-1,1,"-1"
"422",1655,3,1,180,90,-0.05,0,-0.23,1,180,90,-0.04633,127,2,19129,-0.23166,-0.11583,0,1,0,0,0,0,0,0,-0.154436666666667,"-1",0,0,"-1"
"423",2109,2,2,0,0,0.28,-0.42,-0.28,1,0,0,0.69498,128,2,19129,0.139,-0.34749,0,0,1,1,1,0,0,1,0.478761111111111,"-1",-1,0,"-1"
"424",2144,3,1,270,0,-0.23,-0.09,0.28,1,270,0,-0.139,129,2,19129,0.37065,0.092665,1,1,0,0,0,0,0,1,-0.211801428571429,"1",-1,1,"1"
"427",1427,4,1,0,90,0.32,0.46,0,1,0,90,-0.139,132,2,19129,-0.46332,0.23166,0,1,0,0,0,0,0,0,-0.00772500000000004,"0",1,1,"-1"
"428",2112,3,1,180,0,0.05,0.09,0.09,1,180,0,-0.04633,133,2,19129,0,0.09266,0,1,0,0,1,1,0,0,-0.0115833333333333,"1",1,1,"-1"
"430",1210,3,1,0,270,0,-0.28,0.23,1,0,270,0.27799,135,2,19129,0.50965,-0.023165,0,1,0,0,0,0,0,1,0.14478625,"1",-1,0,"-1"
"431",3459,3,2,180,270,0.23,0.14,0.28,1,270,180,0.09266,136,2,19129,0.139,0.20849,1,1,0,0,1,0,0,0,0.03475,"1",1,1,"1"
"432",1404,4,1,90,90,-0.32,-0.46,0.42,1,90,90,0.139,137,2,19129,0.88031,-0.023165,1,1,1,1,0,0,0,1,0.0637125,"1",-1,1,"1"
"433",1695,4,1,90,180,0.28,0.28,-0.09,1,90,180,0,138,2,19129,-0.37065,0.092665,1,1,0,0,0,0,0,0,0.125097,"-1",1,1,"1"
"434",2267,4,2,270,90,-0.23,-0.32,0,1,90,270,0.09266,139,2,19129,0.32432,-0.16216,1,1,0,0,0,0,0,0,-0.119138571428571,"0",-1,1,"1"
"435",2243,3,1,90,270,0.05,0.09,-0.14,1,90,270,-0.04633,140,2,19129,-0.23166,-0.02317,1,1,0,0,0,0,0,0,-0.0115833333333333,"-1",1,1,"1"
"436",1532,3,1,0,180,0,-0.28,-0.09,1,0,180,0.27799,141,2,19129,0.18533,-0.185325,0,1,0,0,1,0,0,0,0.14478625,"-1",-1,0,"-1"
"437",1888,4,2,0,0,-0.28,-0.37,-0.19,1,0,0,0.09266,142,2,19129,0.18533,-0.277995,0,1,1,1,1,0,0,1,-0.0842381818181818,"-1",-1,1,"-1"
"439",1704,1,2,90,180,-0.23,-0.32,-0.19,1,180,90,0.09266,144,2,19129,0.13899,-0.254825,0,0,0,0,1,0,0,0,-0.119138571428571,"-1",-1,1,"-1"
"440",1541,3,1,180,90,0.19,0.37,-0.23,1,180,90,-0.18533,145,2,19129,-0.60231,0.069495,0,1,0,0,0,0,0,0,-0.157525,"-1",1,1,"-1"
"441",1884,3,1,90,180,0.19,-0.14,0.05,1,90,180,0.32432,146,2,19129,0.18533,-0.046335,1,1,0,0,0,0,0,0,0.341174545454545,"1",-1,0,"1"
"443",3650,3,1,90,0,0,-0.09,0.42,1,90,0,0.09266,1,0,19137,0.50965,0.162165,1,1,0,0,0,0,0,0,0.083398,"1",-1,0,"1"
"445",4278,2,1,0,0,-0.42,0.19,0.05,1,0,0,-0.60231,3,0,19137,-0.139,0.11583,0,0,1,1,1,0,0,1,-0.480695,"1",1,0,"-1"
"448",5587,2,1,90,180,0.19,-0.28,0.23,1,90,180,0.46332,6,0,19137,0.50965,-0.023165,1,0,0,0,0,0,0,0,0.432435,"1",-1,0,"1"
"449",3676,1,2,0,180,-0.51,-0.09,-0.32,1,180,0,-0.41699,7,0,19137,-0.23166,-0.20849,0,0,0,0,1,0,0,0,-0.426252,"-1",-1,1,"-1"
"451",5817,1,2,0,270,-0.42,-0.19,-0.19,1,270,0,-0.23166,9,0,19137,0,-0.18533,1,0,0,0,1,1,0,1,-0.270271666666667,"-1",-1,1,"1"
"456",2391,2,1,270,90,-0.6,-0.37,0.19,1,270,90,-0.23166,14,0,19137,0.55599,-0.092665,1,0,0,0,0,0,0,0,-0.148258,"1",-1,1,"1"
"460",2497,2,1,90,180,0.6,0.14,-0.19,1,90,180,0.46332,18,0,19137,-0.32432,-0.02317,1,0,0,0,0,0,0,0,0.43022,"-1",1,1,"1"
"461",3802,1,2,180,180,0.46,0.28,0.32,1,180,180,0.18533,19,0,19137,0.04633,0.301155,0,0,1,1,1,0,0,1,0.308882222222222,"1",1,1,"-1"
"466",2923,2,2,270,0,0.37,0.19,0,1,0,270,0.18533,24,0,19137,-0.18533,0.092665,0,0,0,0,0,0,0,1,0.306945,"0",1,1,"-1"
"467",2869,3,2,0,270,0.6,0.32,0.32,1,270,0,0.27799,25,0,19137,0,0.32432,1,1,0,0,1,1,0,1,0.443458571428571,"1",1,1,"1"
"472",7709,2,2,270,0,0.37,0.28,-0.28,1,0,270,0.09266,30,0,19137,-0.55598,0,0,0,0,0,0,0,0,1,0.216212222222222,"-1",1,1,"-1"
"473",3904,1,1,180,270,0.6,0.28,0.14,1,180,270,0.32432,31,0,19137,-0.139,0.20849,0,0,0,0,1,0,0,0,0.447872222222222,"1",1,1,"-1"
"475",2581,3,2,0,90,0.51,0.19,-0.46,1,90,0,0.32432,33,0,19137,-0.64865,-0.138995,1,1,0,0,0,0,0,0,0.445945,"-1",1,1,"1"
"476",3030,1,1,180,90,0.6,0.46,-0.23,1,180,90,0.139,34,0,19137,-0.69498,0.11583,0,0,0,0,0,0,0,0,0.353275,"-1",1,1,"-1"
"477",2787,3,1,180,180,0.6,0.32,-0.09,1,180,180,0.27799,35,0,19137,-0.41698,0.11583,0,1,1,1,0,0,0,1,0.443458571428571,"-1",1,1,"-1"
"478",2927,3,2,0,270,-0.6,-0.14,-0.42,1,270,0,-0.46332,36,0,19137,-0.27799,-0.277995,1,1,0,0,1,0,0,1,-0.432426666666667,"-1",-1,1,"1"
"480",2720,1,2,90,180,-0.51,0.42,-0.23,1,180,90,-0.92664,38,0,19137,-0.64865,0.092665,0,0,0,0,0,0,0,0,-0.761901111111111,"-1",1,0,"-1"
"481",3529,2,1,0,90,-0.6,-0.23,0.09,1,0,90,-0.37065,39,0,19137,0.32432,-0.0695,0,0,0,0,0,0,0,0,-0.47258,"1",-1,1,"-1"
"487",3011,2,1,180,0,-0.51,-0.32,-0.05,1,180,0,-0.18533,45,0,19137,0.27799,-0.185325,0,0,0,0,1,0,0,0,-0.37065375,"-1",-1,1,"-1"
"488",2853,2,2,270,0,-0.46,-0.32,0.42,1,0,270,-0.139,46,0,19137,0.74131,0.046335,0,0,0,0,0,0,0,1,-0.32432375,"1",-1,1,"-1"
"489",2670,1,2,270,270,0.37,-0.23,0.37,1,270,270,0.60231,47,0,19137,0.60231,0.069495,1,0,1,1,0,0,0,1,0.50038,"1",-1,0,"1"
"491",4190,2,2,270,270,0.51,0.32,-0.09,1,270,270,0.18533,49,0,19137,-0.41698,0.11583,1,0,1,1,0,0,0,1,0.350798571428571,"-1",1,1,"1"
"492",5514,3,1,180,270,-0.51,-0.46,0.14,1,180,270,-0.04633,50,0,19137,0.60231,-0.162165,0,1,0,0,0,0,0,0,-0.105901428571429,"1",-1,1,"-1"
"493",2809,2,1,270,270,0.51,0.32,-0.28,1,270,270,0.18533,51,0,19137,-0.60231,0.023165,1,0,1,1,0,0,0,1,0.350798571428571,"-1",1,1,"1"
"495",3001,3,1,180,0,-0.42,-0.32,-0.14,1,180,0,-0.09266,53,0,19137,0.18532,-0.23166,0,1,0,0,1,0,0,0,-0.27799375,"-1",-1,1,"-1"
"498",3209,2,1,270,180,-0.56,-0.37,-0.42,1,270,180,-0.18533,56,0,19137,-0.04633,-0.393825,1,0,0,0,1,0,0,0,-0.101928,"-1",-1,1,"1"
"499",3266,2,2,90,180,0.56,0.23,0.32,1,180,90,0.32432,57,0,19137,0.09266,0.27799,0,0,0,0,1,0,0,0,0.336957272727273,"1",1,1,"-1"
"504",4227,2,1,90,90,0.37,0.37,0.46,1,90,90,0,62,0,19137,0.09267,0.416985,1,0,1,1,1,0,0,1,0.09266,"1",1,1,"1"
"506",3317,1,1,0,270,0.46,0.46,0.46,1,0,270,0,64,0,19137,0,0.46332,0,0,0,0,1,1,0,1,0.214285,"1",1,1,"-1"
"507",6811,3,1,180,270,0.6,0.46,0.28,1,180,270,0.139,65,0,19137,-0.18533,0.370655,0,1,0,0,1,0,0,0,0.353275,"1",1,1,"-1"
"509",4391,2,1,0,180,-0.51,0.09,-0.28,1,0,180,-0.60231,67,0,19137,-0.37065,-0.092665,0,0,0,0,0,0,0,0,-0.810805,"-1",1,0,"-1"
"510",2913,4,1,90,270,-0.37,-0.09,-0.09,1,90,270,-0.27799,68,0,19137,0,-0.09266,1,1,0,0,1,1,0,0,-0.287262,"-1",-1,1,"1"
"511",4434,2,1,90,180,0.42,0.42,0.09,1,90,180,0,69,0,19137,-0.32433,0.254825,1,0,0,0,1,0,0,0,0.164738888888889,"1",1,1,"1"
"512",2887,3,2,0,90,-0.56,0.23,0.23,1,90,0,-0.78764,70,0,19137,0,0.23166,1,1,0,0,1,1,0,0,-0.775002727272727,"1",1,0,"1"
"513",2920,2,1,270,90,0.42,-0.19,-0.19,1,270,90,0.60231,71,0,19137,0,-0.18533,1,0,0,0,1,1,0,0,0.563708333333333,"-1",-1,0,"1"
"515",3382,2,2,90,0,0.28,0.37,-0.09,1,0,90,-0.09266,73,0,19137,-0.46331,0.138995,0,0,0,0,0,0,0,0,0,"-1",1,1,"-1"
"517",2796,3,1,0,270,0.05,-0.14,-0.42,1,0,270,0.18533,75,0,19137,-0.27799,-0.277995,0,1,0,0,1,0,0,1,0.216213333333333,"-1",-1,0,"-1"
"518",3539,3,2,180,180,0.05,-0.37,-0.42,1,180,180,0.41699,76,0,19137,-0.04633,-0.393825,0,1,1,1,1,0,0,1,0.500382,"-1",-1,0,"-1"
"519",3161,2,2,90,0,-0.51,-0.42,0.42,1,0,90,-0.09266,77,0,19137,0.83398,0,0,0,0,0,0,0,0,0,-0.285713333333333,"1",-1,1,"-1"
"520",3281,3,2,0,270,-0.37,-0.14,0.28,1,270,0,-0.23166,78,0,19137,0.41699,0.069495,1,1,0,0,0,0,0,1,-0.200776666666667,"1",-1,1,"1"
"522",2652,3,1,180,270,-0.37,-0.05,0.09,1,180,270,-0.32432,80,0,19137,0.13899,0.023165,0,1,0,0,0,0,0,0,-0.324327142857143,"1",-1,1,"-1"
"523",8413,2,2,270,0,-0.28,-0.42,-0.42,1,0,270,0.139,81,0,19137,0,-0.41699,0,0,0,0,1,1,0,1,-0.0540533333333333,"-1",-1,1,"-1"
"524",3187,3,1,0,180,0.09,-0.19,0.42,1,0,180,0.27799,82,0,19137,0.60232,0.11583,0,1,0,0,0,0,0,0,0.239378333333333,"1",-1,0,"-1"
"526",3221,1,2,180,270,-0.37,-0.05,-0.05,1,270,180,-0.32432,84,0,19137,0,-0.04633,1,0,0,0,1,1,0,0,-0.324327142857143,"-1",-1,1,"1"
"529",3989,2,1,180,180,0.19,0.23,0.23,1,180,180,-0.04633,87,0,19137,0,0.23166,0,0,1,1,1,1,0,1,-0.0336927272727273,"1",1,1,"-1"
"531",2521,3,1,0,90,-0.46,-0.37,0.14,1,0,90,-0.09266,89,0,19137,0.50965,-0.115835,0,1,0,0,0,0,0,0,-0.009268,"1",-1,1,"-1"
"532",3911,1,1,180,180,-0.23,-0.32,0.19,1,180,180,0.09266,90,0,19137,0.50965,-0.069495,0,0,1,1,0,0,0,1,-0.09266375,"1",-1,1,"-1"
"534",3278,1,1,90,0,0.09,0.05,0.37,1,90,0,0.04633,92,0,19137,0.32432,0.20849,1,0,0,0,1,0,0,0,0.0514766666666667,"1",1,1,"1"
"535",2521,1,2,90,90,-0.56,-0.19,-0.09,1,90,90,-0.37065,93,0,19137,0.09267,-0.138995,1,0,1,1,1,0,0,1,-0.409261666666667,"-1",-1,1,"1"
"536",8070,1,2,0,0,0.05,-0.19,-0.19,1,0,0,0.23166,94,0,19137,0,-0.18533,0,0,1,1,1,1,0,1,0.193048333333333,"-1",-1,0,"-1"
"537",2858,3,1,90,0,0.42,0.46,-0.05,1,90,0,-0.04633,95,0,19137,-0.50965,0.208495,1,1,0,0,0,0,0,0,0.167955,"-1",1,1,"1"
"540",3579,2,1,0,180,-0.05,0.14,-0.46,1,0,180,-0.18533,98,0,19137,-0.60231,-0.162165,0,0,0,0,0,0,0,0,-0.21842,"-1",1,0,"-1"
"543",3153,2,1,0,90,-0.23,0.28,0.46,1,0,90,-0.50965,101,0,19137,0.18533,0.370655,0,0,0,0,1,0,0,0,-0.386097777777778,"1",1,0,"-1"
"545",3106,2,2,0,0,0.37,0.23,0.14,1,0,0,0.139,103,0,19137,-0.09267,0.185325,0,0,1,1,1,0,0,1,0.151627272727273,"1",1,1,"-1"
"546",3542,3,2,0,0,0.23,-0.14,-0.28,1,0,0,0.37065,104,0,19137,-0.13899,-0.208495,0,1,1,1,1,0,0,1,0.401543333333333,"-1",-1,0,"-1"
"547",2230,2,1,180,180,0.28,-0.32,-0.09,1,180,180,0.60231,105,0,19137,0.23166,-0.20849,0,0,1,1,1,0,0,1,0.41698625,"-1",-1,0,"-1"
"548",2015,3,1,270,180,-0.46,0.23,0.32,1,270,180,-0.69498,106,0,19137,0.09266,0.27799,1,1,0,0,1,0,0,0,-0.682342727272727,"1",1,0,"1"
"550",2563,2,1,90,0,-0.51,-0.23,-0.32,1,90,0,-0.27799,108,0,19137,-0.09266,-0.27799,1,0,0,0,1,0,0,0,-0.37992,"-1",-1,1,"1"
"551",1804,2,1,0,180,0.42,0.42,0.46,1,0,180,0,109,0,19137,0.04633,0.440155,0,0,0,0,1,0,0,0,0.164738888888889,"1",1,1,"-1"
"552",4627,2,2,90,90,0.28,0.09,0.14,1,90,90,0.18533,110,0,19137,0.04633,0.115825,1,0,1,1,1,0,0,1,-0.023165,"1",1,1,"1"
"553",3302,2,1,270,0,-0.6,-0.46,0.37,1,270,0,-0.139,111,0,19137,0.83397,-0.046335,1,0,0,0,0,0,0,1,-0.198561428571429,"1",-1,1,"1"
"555",2143,2,2,0,90,-0.09,0.05,0.37,1,90,0,-0.139,113,0,19137,0.32432,0.20849,1,0,0,0,1,0,0,0,-0.133843333333333,"1",1,0,"1"
"556",2050,2,1,90,90,-0.6,0,-0.46,1,90,90,-0.60231,114,0,19137,-0.46332,-0.23166,1,0,1,1,0,0,0,1,-0.926635,"-1",0,0,"1"
"557",2619,3,1,180,90,-0.37,0.05,0.37,1,180,90,-0.41699,115,0,19137,0.32432,0.20849,0,1,0,0,1,0,0,0,-0.411843333333333,"1",1,0,"-1"
"558",4871,3,1,90,270,-0.37,-0.46,-0.28,1,90,270,0.09266,116,0,19137,0.18533,-0.370655,1,1,0,0,1,0,0,0,0.0330885714285715,"-1",-1,1,"1"
"559",3412,3,2,270,180,0.37,-0.14,-0.09,1,180,270,0.50965,117,0,19137,0.04634,-0.11583,0,1,0,0,1,0,0,0,0.540533333333333,"-1",-1,0,"-1"
"561",2625,3,1,0,90,0.37,0.28,-0.37,1,0,90,0.09266,119,0,19137,-0.64865,-0.046335,0,1,0,0,0,0,0,0,0.216212222222222,"-1",1,1,"-1"
"562",3498,1,2,90,270,0.23,0.19,-0.23,1,270,90,0.04633,120,0,19137,-0.41699,-0.023165,1,0,0,0,0,0,0,0,0.167955,"-1",1,1,"1"
"563",2563,1,1,180,180,0.32,0.09,-0.32,1,180,180,0.23166,121,0,19137,-0.41698,-0.11583,0,0,1,1,0,0,0,1,0.023165,"-1",1,1,"-1"
"564",3133,2,2,0,180,0.32,0.42,0.19,1,180,0,-0.09266,122,0,19137,-0.23166,0.30116,0,0,0,0,1,0,0,0,0.0720688888888889,"1",1,1,"-1"
"565",3502,1,2,0,0,0.28,0.05,-0.05,1,0,0,0.23166,123,0,19137,-0.09266,0,0,0,1,1,0,0,0,1,0.236806666666667,"-1",1,1,"-1"
"566",3051,2,1,90,0,0.23,-0.32,-0.32,1,90,0,0.55598,124,0,19137,0,-0.32432,1,0,0,0,1,1,0,0,0.37065625,"-1",-1,0,"1"
"567",2043,2,2,270,180,0.32,0,-0.32,1,180,270,0.32432,125,0,19137,-0.32432,-0.16216,0,0,0,0,0,0,0,0,-0.00000500000000003276,"-1",0,0,"-1"
"568",2293,4,1,0,90,0.28,0.05,-0.37,1,0,90,0.23166,126,0,19137,-0.41699,-0.162165,0,1,0,0,0,0,0,0,0.236806666666667,"-1",1,1,"-1"
"570",4837,1,1,270,90,-0.46,-0.37,-0.42,1,270,90,-0.09266,128,0,19137,-0.04633,-0.393825,1,0,0,0,1,0,0,0,-0.009268,"-1",-1,1,"1"
"572",2970,2,2,270,270,0.05,0.14,0.14,1,270,270,-0.09266,130,0,19137,0,0.13899,1,0,1,1,1,1,0,1,-0.12576,"1",1,1,"1"
"573",3689,2,1,90,180,0.28,0.42,-0.46,1,90,180,-0.139,131,0,19137,-0.88031,-0.023165,1,0,0,0,0,0,0,0,0.0257388888888889,"-1",1,1,"1"
"575",2485,2,2,270,90,0.37,0.28,0.28,1,90,270,0.09266,133,0,19137,0,0.27799,1,0,0,0,1,1,0,0,0.216212222222222,"1",1,1,"1"
"578",3395,2,2,180,90,0.32,0.09,0.28,1,90,180,0.23166,136,0,19137,0.18533,0.185325,1,0,0,0,1,0,0,0,0.023165,"1",1,1,"1"
"582",2826,2,1,90,270,-0.46,-0.37,-0.37,1,90,270,-0.09266,140,0,19137,0,-0.37066,1,0,0,0,1,1,0,0,-0.009268,"-1",-1,1,"1"
"583",3333,2,1,270,270,0.56,0.32,-0.23,1,270,270,0.23166,141,0,19137,-0.55598,0.04633,1,0,1,1,0,0,0,1,0.397128571428571,"-1",1,1,"1"
"584",3309,2,1,180,270,0.42,0.19,-0.37,1,180,270,0.23166,142,0,19137,-0.55599,-0.092665,0,0,0,0,0,0,0,0,0.353285,"-1",1,1,"-1"
"587",2296,2,1,180,180,0.37,-0.05,-0.09,1,180,180,0.41699,145,0,19137,-0.04633,-0.069495,0,0,1,1,1,0,0,1,0.416982857142857,"-1",-1,0,"-1"
"588",4005,3,2,90,270,0.05,-0.05,0.46,1,270,90,0.09266,146,0,19137,0.50965,0.208495,1,1,0,0,0,0,0,0,0.0926628571428571,"1",-1,0,"1"
"590",2709,3,2,270,0,0.37,0.42,0.42,1,0,270,-0.04633,1,0,19197,0,0.41699,0,1,0,0,1,1,0,1,0.304464285714286,"1",1,1,"-1"
"592",2519,4,2,270,180,-0.05,-0.23,-0.23,1,180,270,0.18533,3,0,19197,0,-0.23166,0,1,0,0,1,1,0,0,-0.0926609090909091,"-1",-1,1,"-1"
"593",2936,1,2,90,180,0.51,0.05,-0.46,1,180,90,0.46332,4,0,19197,-0.50965,-0.208495,0,0,0,0,0,0,0,0,0.500382,"-1",1,1,"-1"
"594",3086,3,1,0,90,-0.56,-0.28,0.42,1,0,90,-0.27799,5,0,19197,0.69498,0.0695,0,1,0,0,0,0,0,0,-0.444782,"1",-1,1,"-1"
"595",3305,4,2,0,180,0.51,0.32,0.32,1,180,0,0.18533,6,0,19197,0,0.32432,0,1,0,0,1,1,0,0,0.328957,"1",1,1,"-1"
"596",3095,4,1,270,180,0.46,-0.23,-0.46,1,270,180,0.69498,7,0,19197,-0.23166,-0.34749,1,1,0,0,1,0,0,0,0.416989090909091,"-1",-1,0,"1"
"597",1858,4,2,90,270,0.46,0.19,-0.09,1,270,90,0.27799,8,0,19197,-0.27799,0.046335,1,1,0,0,0,0,0,0,0.36486375,"-1",1,1,"1"
"598",1569,2,2,90,270,-0.32,0.37,0,1,270,90,-0.69498,9,0,19197,-0.37065,0.185325,1,0,0,0,0,0,0,0,-0.623370909090909,"0",1,0,"1"
"599",3525,1,2,90,90,0.46,0.19,-0.14,1,90,90,0.27799,10,0,19197,-0.32433,0.023165,1,0,1,1,0,0,0,1,0.36486375,"-1",1,1,"1"
"601",3271,3,1,270,270,0.51,0.37,0.42,1,270,270,0.139,12,0,19197,0.04634,0.39382,1,1,1,1,1,0,0,1,0.210599090909091,"1",1,1,"1"
"602",2165,4,2,90,90,-0.42,-0.46,0.19,1,90,90,0.04633,13,0,19197,0.64865,-0.138995,1,1,1,1,0,0,0,1,-0.42471,"1",-1,1,"1"
"603",1630,4,1,90,0,0.37,0,-0.14,1,90,0,0.37065,14,0,19197,-0.139,-0.0695,1,1,0,0,0,0,0,0,0.32432,"-1",0,0,"1"
"607",1992,4,2,90,270,0.51,0.32,0.23,1,270,90,0.18533,18,0,19197,-0.09266,0.27799,1,1,0,0,1,0,0,0,0.328957,"1",1,1,"1"
"608",1647,4,2,0,270,0.46,0.46,0.23,1,270,0,0,19,0,19197,-0.23166,0.34749,1,1,0,0,1,0,0,1,0.10811,"1",1,1,"1"
"610",1944,2,2,270,180,0.51,0.09,0.32,1,180,270,0.41699,21,0,19197,0.23166,0.20849,0,0,0,0,1,0,0,0,0.42857,"1",1,1,"-1"
"612",2642,1,1,270,0,0,0.09,0.14,1,270,0,-0.09266,23,0,19197,0.04633,0.115825,1,0,0,0,1,0,0,1,-0.08108,"1",1,0,"1"
"614",5445,4,1,0,0,0,-0.05,-0.05,1,0,0,0.04633,25,0,19197,0,-0.04633,0,1,1,1,1,1,0,1,0.037066,"-1",-1,0,"-1"
"616",1933,1,1,90,180,-0.23,0.23,0.23,1,90,180,-0.46332,27,0,19197,0,0.23166,1,0,0,0,1,1,0,0,-0.239381666666667,"1",1,0,"1"
"618",1808,4,2,0,270,0.46,0.14,-0.23,1,270,0,0.32432,29,0,19197,-0.37065,-0.046335,1,1,0,0,0,0,0,1,0.431245384615385,"-1",1,1,"1"
"619",4923,2,1,270,0,0,0.28,0.37,1,270,0,-0.27799,30,0,19197,0.09266,0.32432,1,0,0,0,1,0,0,1,-0.0347475,"1",1,0,"1"
"620",1383,4,1,90,90,0.28,-0.09,-0.09,1,90,90,0.37065,31,0,19197,0,-0.09266,1,1,1,1,1,1,0,1,0.311085714285714,"-1",-1,0,"1"
"621",1962,1,1,0,270,0.37,0.23,0,1,0,270,0.139,32,0,19197,-0.23166,0.11583,0,0,0,0,0,0,0,1,0.362928333333333,"0",1,1,"-1"
"622",1460,4,1,180,180,0.42,0.23,0.23,1,180,180,0.18533,33,0,19197,0,0.23166,0,1,1,1,1,1,0,1,0.409268333333333,"1",1,1,"-1"
"625",2379,4,2,180,180,0.14,0.37,0.37,1,180,180,-0.23166,36,0,19197,0,0.37065,0,1,1,1,1,1,0,1,-0.160060909090909,"1",1,1,"-1"
"626",2000,3,1,90,90,0,-0.23,-0.23,1,90,90,0.23166,37,0,19197,0,-0.23166,1,1,1,1,1,1,0,1,-0.0463309090909091,"-1",-1,0,"1"
"630",2235,1,2,270,90,-0.05,-0.05,-0.05,1,90,270,0,41,0,19197,0,-0.04633,1,0,0,0,1,1,0,0,-0.009264,"-1",-1,1,"1"
"631",1426,4,2,0,180,0,-0.37,-0.09,1,180,0,0.37065,42,0,19197,0.278,-0.23166,0,1,0,0,1,0,0,0,-0.00421181818181818,"-1",-1,0,"-1"
"632",1121,2,2,0,180,0,-0.32,0,1,180,0,0.32432,43,0,19197,0.32432,-0.16216,0,0,0,0,0,0,0,0,0.0173775,"0",-1,0,"-1"
"633",2286,2,1,180,90,-0.14,0.32,0.32,1,180,90,-0.46332,44,0,19197,0,0.32432,0,0,0,0,1,1,0,0,-0.319693,"1",1,0,"-1"
"634",1432,1,1,0,90,0.14,0.46,-0.28,1,0,90,-0.32432,45,0,19197,-0.74131,0.092665,0,0,0,0,0,0,0,0,-0.21622,"-1",1,1,"-1"
"636",1921,2,1,180,270,0.19,-0.32,0.09,1,180,270,0.50965,47,0,19197,0.41698,-0.11583,0,0,0,0,0,0,0,0,0.2027075,"1",-1,0,"-1"
"638",1350,2,2,270,0,-0.19,0.14,0.37,1,0,270,-0.32432,49,0,19197,0.23166,0.25482,0,0,0,0,1,0,0,1,-0.217404615384615,"1",1,0,"-1"
"639",1853,3,2,90,0,0,0.23,0.09,1,0,90,-0.23166,50,0,19197,-0.139,0.16216,0,1,0,0,1,0,0,0,-0.00772166666666667,"1",1,0,"-1"
"640",26556,2,2,90,0,-0.19,-0.19,-0.19,1,0,90,0,51,0,19197,0,-0.18533,0,0,0,0,1,1,0,0,-0.208495,"-1",-1,1,"-1"
"641",2470,2,2,180,0,0,0.14,-0.05,1,0,180,-0.139,52,0,19197,-0.18532,0.04633,0,0,0,0,0,0,0,0,-0.0320746153846154,"-1",1,0,"-1"
"642",3591,4,1,180,0,0.46,0.37,0.28,1,180,0,0.09266,53,0,19197,-0.09266,0.32432,0,1,0,0,1,0,0,0,0.164269090909091,"1",1,1,"-1"
"644",3151,1,2,180,90,-0.56,-0.42,0.14,1,90,180,-0.139,55,0,19197,0.55598,-0.139,1,0,0,0,0,0,0,0,-0.540535,"1",-1,1,"1"
"646",4386,1,1,0,270,0,-0.05,0.46,1,0,270,0.04633,57,0,19197,0.50965,0.208495,0,0,0,0,0,0,0,1,0.037066,"1",-1,0,"-1"
"648",2244,3,2,90,0,0.42,0.05,0,1,0,90,0.37065,59,0,19197,-0.04633,0.023165,0,1,0,0,0,0,0,0,0.407722,"0",1,1,"-1"
"650",2051,4,1,180,0,0.46,0.19,0.05,1,180,0,0.27799,61,0,19197,-0.139,0.11583,0,1,0,0,1,0,0,0,0.36486375,"1",1,1,"-1"
"651",2407,2,2,180,180,0.05,-0.09,-0.37,1,180,180,0.139,62,0,19197,-0.278,-0.23166,0,0,1,1,1,0,0,1,0.0794257142857143,"-1",-1,0,"-1"
"652",4329,4,1,270,90,0.14,0.32,0.19,1,270,90,-0.18533,63,0,19197,-0.13899,0.254825,1,1,0,0,1,0,0,0,-0.041703,"1",1,1,"1"
"653",11408,1,1,0,180,0.05,0.32,0.46,1,0,180,-0.27799,64,0,19197,0.139,0.39382,0,0,0,0,1,0,0,0,-0.134363,"1",1,1,"-1"
"654",2899,2,2,90,0,0.09,-0.32,-0.32,1,0,90,0.41699,65,0,19197,0,-0.32432,0,0,0,0,1,1,0,0,0.1100375,"-1",-1,0,"-1"
"657",4370,1,2,0,180,0.23,0,-0.14,1,180,0,0.23166,68,0,19197,-0.139,-0.0695,0,0,0,0,0,0,0,0,0.18533,"-1",0,0,"-1"
"659",6774,3,2,180,90,0.09,0.09,0.09,1,90,180,0,70,0,19197,0,0.09266,1,1,0,0,1,1,0,0,0.01158,"1",1,1,"1"
"660",6594,1,1,0,0,0.23,-0.05,0.19,1,0,0,0.27799,71,0,19197,0.23166,0.0695,0,0,1,1,0,0,0,1,0.268726,"1",-1,0,"-1"
"662",1075,3,2,180,180,0,0.46,0.28,1,180,180,-0.46332,73,0,19197,-0.18533,0.370655,0,1,1,1,1,0,0,1,-0.35521,"1",1,0,"-1"
"665",8769,1,1,180,180,0.05,-0.46,0.23,1,180,180,0.50965,76,0,19197,0.69498,-0.11583,0,0,1,1,0,0,0,1,0.03861,"1",-1,0,"-1"
"666",3826,4,2,270,90,0.05,-0.23,-0.37,1,90,270,0.27799,77,0,19197,-0.139,-0.30116,1,1,0,0,1,0,0,0,-0.00000090909090909308,"-1",-1,0,"1"
"667",3293,2,2,0,270,0.19,-0.28,0.32,1,270,0,0.46332,78,0,19197,0.60231,0.023165,1,0,0,0,0,0,0,1,0.296528,"1",-1,0,"1"
"668",1471,3,1,180,90,0.09,-0.37,-0.14,1,180,90,0.46332,79,0,19197,0.23166,-0.25483,0,1,0,0,1,0,0,0,0.0884481818181818,"-1",-1,0,"-1"
"669",1587,4,2,0,90,-0.14,0,-0.42,1,90,0,-0.139,80,0,19197,-0.41699,-0.208495,1,1,0,0,0,0,0,0,-0.18533,"-1",0,0,"1"
"670",4214,1,2,90,90,-0.05,-0.37,-0.09,1,90,90,0.32432,81,0,19197,0.278,-0.23166,1,0,1,1,1,0,0,1,-0.0505418181818182,"-1",-1,1,"1"
"671",1492,3,2,0,270,-0.19,-0.32,-0.46,1,270,0,0.139,82,0,19197,-0.139,-0.39382,1,1,0,0,1,0,0,1,-0.1679525,"-1",-1,1,"1"
"676",3712,1,1,0,270,0.32,-0.19,-0.09,1,0,270,0.50965,87,0,19197,0.09267,-0.138995,0,0,0,0,1,0,0,1,0.301155,"-1",-1,0,"-1"
"677",2025,4,1,270,270,0.09,-0.23,-0.23,1,270,270,0.32432,88,0,19197,0,-0.23166,1,1,1,1,1,1,0,1,0.0463290909090909,"-1",-1,0,"1"
"678",6032,1,2,90,90,0.14,-0.14,-0.14,1,90,90,0.27799,89,0,19197,0,-0.139,1,0,1,1,1,1,0,1,0.14478375,"-1",-1,0,"1"
"680",2827,4,1,0,270,-0.14,-0.23,0,1,0,270,0.09266,91,0,19197,0.23166,-0.11583,0,1,0,0,0,0,0,1,-0.185330909090909,"0",-1,1,"-1"
"683",1458,3,2,0,180,0.42,0.05,-0.32,1,180,0,0.37065,94,0,19197,-0.37065,-0.138995,0,1,0,0,0,0,0,0,0.407722,"-1",1,1,"-1"
"685",3387,2,1,0,180,0.32,-0.42,-0.42,1,0,180,0.74131,96,0,19197,0,-0.41699,0,0,0,0,1,1,0,0,0.339765,"-1",-1,0,"-1"
"686",3055,2,2,270,180,-0.19,0.28,0.05,1,180,270,-0.46332,97,0,19197,-0.23166,0.16216,0,0,0,0,1,0,0,0,-0.2200775,"1",1,0,"-1"
"687",1900,3,2,270,90,-0.14,0.09,-0.32,1,90,270,-0.23166,98,0,19197,-0.41698,-0.11583,1,1,0,0,0,0,0,0,-0.22008,"-1",1,0,"1"
"689",1820,4,1,180,90,0.14,0.09,-0.28,1,180,90,0.04633,100,0,19197,-0.37065,-0.092665,0,1,0,0,0,0,0,0,0.05791,"-1",1,1,"-1"
"690",5188,1,1,270,90,0.14,0.42,0.32,1,270,90,-0.27799,101,0,19197,-0.09267,0.370655,1,0,0,0,1,0,0,0,0.0728042857142857,"1",1,1,"1"
"693",3961,1,2,180,270,0.14,0.28,-0.42,1,270,180,-0.139,104,0,19197,-0.69498,-0.0695,1,0,0,0,0,0,0,0,0.1042425,"-1",1,1,"1"
"694",8191,2,1,270,270,0.28,0.32,-0.46,1,270,270,-0.04633,105,0,19197,-0.78764,-0.0695,1,0,1,1,0,0,0,1,0.097297,"-1",1,1,"1"
"695",15013,4,2,0,270,0.09,-0.14,-0.28,1,270,0,0.23166,106,0,19197,-0.13899,-0.208495,1,1,0,0,1,0,0,1,0.09845375,"-1",-1,0,"1"
"696",1486,2,1,90,270,-0.14,-0.19,0.09,1,90,270,0.04633,107,0,19197,0.27799,-0.046335,1,0,0,0,0,0,0,0,-0.162165,"1",-1,1,"1"
"697",2118,1,2,90,180,0.37,-0.23,0,1,180,90,0.60231,108,0,19197,0.23166,-0.11583,0,0,0,0,0,0,0,0,0.324319090909091,"0",-1,0,"-1"
"699",1792,2,2,180,0,0.51,0.37,-0.46,1,0,180,0.139,110,0,19197,-0.83397,-0.046335,0,0,0,0,0,0,0,0,0.210599090909091,"-1",1,1,"-1"
"700",1751,2,1,270,90,0.23,0.46,-0.14,1,270,90,-0.23166,111,0,19197,-0.60232,0.16216,1,0,0,0,0,0,0,0,-0.12355,"-1",1,1,"1"
"701",2384,3,2,90,0,-0.19,-0.42,-0.42,1,0,90,0.23166,112,0,19197,0,-0.41699,0,1,0,0,1,1,0,0,-0.169885,"-1",-1,1,"-1"
"704",3238,1,2,90,180,-0.28,-0.42,-0.42,1,180,90,0.139,115,0,19197,0,-0.41699,0,0,0,0,1,1,0,0,-0.262545,"-1",-1,1,"-1"
"706",1372,4,1,0,90,0,0.14,0.14,1,0,90,-0.139,117,0,19197,0,0.13899,0,1,0,0,1,1,0,0,-0.0320746153846154,"1",1,0,"-1"
"707",2384,2,1,270,270,0.32,0.05,0.05,1,270,270,0.27799,118,0,19197,0,0.04633,1,0,1,1,1,1,0,1,0.315052,"1",1,1,"1"
"708",1381,4,2,180,180,0.05,0,0.28,1,180,180,0.04633,119,0,19197,0.27799,0.138995,0,1,1,1,0,0,0,1,0.00000000000000000693889390390723,"1",0,0,"-1"
"709",1879,3,2,180,90,0.56,0.37,-0.32,1,90,180,0.18533,120,0,19197,-0.69497,0.023165,1,1,0,0,0,0,0,0,0.256929090909091,"-1",1,1,"1"
"710",2081,1,2,270,180,0,-0.46,0.19,1,180,270,0.46332,121,0,19197,0.64865,-0.138995,0,0,0,0,0,0,0,0,-0.00772,"1",-1,0,"-1"
"711",1493,1,1,0,0,0.42,0.32,0.19,1,0,0,0.09266,122,0,19197,-0.13899,0.254825,0,0,1,1,1,0,0,1,0.236297,"1",1,1,"-1"
"714",2898,1,2,180,270,0.23,0.14,0.09,1,270,180,0.09266,125,0,19197,-0.04633,0.115825,1,0,0,0,1,0,0,0,0.199585384615385,"1",1,1,"1"
"716",2306,1,2,270,180,-0.14,-0.23,0.19,1,180,270,0.09266,127,0,19197,0.41699,-0.023165,0,0,0,0,0,0,0,0,-0.185330909090909,"1",-1,1,"-1"
"718",2806,2,2,270,0,-0.28,-0.09,-0.09,1,0,270,-0.18533,129,0,19197,0,-0.09266,0,0,0,0,1,1,0,1,-0.244894285714286,"-1",-1,1,"-1"
"719",1569,2,1,90,90,0.32,0.05,-0.09,1,90,90,0.27799,130,0,19197,-0.13899,-0.023165,1,0,1,1,0,0,0,1,0.315052,"-1",1,1,"1"
"721",2277,1,2,90,270,0.37,-0.28,-0.28,1,270,90,0.64865,132,0,19197,0,-0.27799,1,0,0,0,1,1,0,0,0.481848,"-1",-1,0,"1"
"722",3393,1,2,0,180,-0.23,-0.37,-0.37,1,180,0,0.139,133,0,19197,0,-0.37066,0,0,0,0,1,1,0,0,-0.235871818181818,"-1",-1,1,"-1"
"723",1716,1,2,180,270,-0.23,0.37,-0.05,1,270,180,-0.60231,134,0,19197,-0.41698,0.16216,1,0,0,0,0,0,0,0,-0.530710909090909,"-1",1,0,"1"
"728",3804,2,2,270,270,-0.05,0.19,0.19,1,270,270,-0.23166,139,0,19197,0,0.18533,1,0,1,1,1,1,0,1,-0.14478625,"1",1,0,"1"
"731",1769,3,2,0,90,0.05,-0.05,0.42,1,90,0,0.09266,142,0,19197,0.46332,0.18533,1,1,0,0,0,0,0,0,0.083396,"1",-1,0,"1"
"732",1200,1,1,90,270,0.28,0.37,0.23,1,90,270,-0.09266,143,0,19197,-0.13899,0.301155,1,0,0,0,1,0,0,0,-0.0210609090909091,"1",1,1,"1"
"735",1860,1,2,270,270,-0.46,-0.37,0.05,1,270,270,-0.09266,146,0,19197,0.41699,-0.162165,1,0,1,1,0,0,0,1,-0.467531818181818,"1",-1,1,"1"
"737",3200,1,1,270,90,-0.56,-0.32,0.09,1,270,90,-0.23166,1,1,19137,0.41698,-0.11583,1,0,0,0,0,0,0,0,-0.41698375,"1",-1,1,"1"
"738",2141,2,1,90,0,-0.42,-0.14,0,1,90,0,-0.27799,2,1,19137,0.139,-0.0695,1,0,0,0,0,0,0,0,-0.247106666666667,"0",-1,1,"1"
"740",3226,2,1,0,0,-0.42,-0.37,-0.46,1,0,0,-0.04633,4,1,19137,-0.09266,-0.41699,0,0,1,1,1,0,0,1,0.037062,"-1",-1,1,"-1"
"742",2670,2,2,270,90,0.23,0.32,-0.14,1,90,270,-0.09266,6,1,19137,-0.46332,0.09266,1,0,0,0,0,0,0,0,0.0728085714285714,"-1",1,1,"1"
"743",5327,3,2,270,270,-0.37,-0.28,-0.23,1,270,270,-0.09266,7,1,19137,0.04633,-0.254825,1,1,1,1,1,0,0,1,-0.123555,"-1",-1,1,"1"
"744",4607,3,2,90,90,-0.32,0.05,-0.14,1,90,90,-0.37065,8,1,19137,-0.18533,-0.046335,1,1,1,1,0,0,0,1,-0.365503333333333,"-1",1,0,"1"
"745",2292,2,1,270,270,0.23,0.19,0.19,1,270,270,0.04633,9,1,19137,0,0.18533,1,0,1,1,1,1,0,1,0.167955,"1",1,1,"1"
"746",5571,3,2,270,270,-0.42,-0.19,0.28,1,270,270,-0.23166,10,1,19137,0.46332,0.04633,1,1,1,1,0,0,0,1,-0.270271666666667,"1",-1,1,"1"
"747",3505,3,1,0,180,0.56,0.19,0.42,1,0,180,0.37065,11,1,19137,0.23166,0.30116,0,1,0,0,1,0,0,0,0.492275,"1",1,1,"-1"
"749",2974,1,2,0,180,0.42,0.46,0.46,1,180,0,-0.04633,13,1,19137,0,0.46332,0,0,0,0,1,1,0,0,0.167955,"1",1,1,"-1"
"750",2338,3,2,90,180,0.42,-0.09,-0.23,1,180,90,0.50965,14,1,19137,-0.139,-0.16216,0,1,0,0,1,0,0,0,0.500388,"-1",-1,0,"-1"
"751",2893,1,1,270,0,0.42,0.32,0.19,1,270,0,0.09266,15,1,19137,-0.13899,0.254825,1,0,0,0,1,0,0,1,0.258138571428571,"1",1,1,"1"
"753",4391,1,1,270,0,-0.42,-0.19,0.46,1,270,0,-0.23166,17,1,19137,0.64865,0.138995,1,0,0,0,0,0,0,1,-0.270271666666667,"1",-1,1,"1"
"755",3230,2,1,0,180,0,-0.09,-0.09,1,0,180,0.09266,19,1,19137,0,-0.09266,0,0,0,0,1,1,0,0,0.083398,"-1",-1,0,"-1"
"756",2872,1,1,270,180,0.23,0.37,-0.09,1,270,180,-0.139,20,1,19137,-0.46331,0.138995,1,0,0,0,0,0,0,0,-0.04633,"-1",1,1,"1"
"757",3324,1,1,270,0,-0.37,-0.37,0.14,1,270,0,0,21,1,19137,0.50965,-0.115835,1,0,0,0,0,0,0,1,0.083392,"1",-1,1,"1"
"758",3887,2,2,90,270,-0.09,0.05,0.46,1,270,90,-0.139,22,1,19137,0.41699,0.254825,1,0,0,0,1,0,0,0,-0.133843333333333,"1",1,0,"1"
"762",3340,2,2,270,270,0,0.37,0.37,1,270,270,-0.37065,26,1,19137,0,0.37065,1,0,1,1,1,1,0,1,-0.27799,"1",1,0,"1"
"769",3048,2,2,270,90,0.09,0.28,-0.09,1,90,270,-0.18533,33,1,19137,-0.37065,0.092665,1,0,0,0,0,0,0,0,-0.0617777777777778,"-1",1,1,"1"
"771",2802,2,1,90,270,0.28,0.37,0.28,1,90,270,-0.09266,35,1,19137,-0.09266,0.32432,1,0,0,0,1,0,0,0,0,"1",1,1,"1"
"772",3594,2,2,180,270,-0.6,0.14,-0.14,1,270,180,-0.74131,36,1,19137,-0.27799,-0.000005000000000005,1,0,0,0,0,0,0,0,-0.7744,"-1",1,0,"1"
"773",3878,2,2,270,0,0.46,0.46,0.46,1,0,270,0,37,1,19137,0,0.46332,0,0,0,0,1,1,0,1,0.214285,"1",1,1,"-1"
"774",3298,3,1,90,270,0.05,0.19,0.46,1,90,270,-0.139,38,1,19137,0.27799,0.324325,1,1,0,0,1,0,0,0,-0.017375,"1",1,1,"1"
"777",3156,2,2,270,0,0.6,0.23,0.23,1,0,270,0.37066,41,1,19137,0,0.23166,0,0,0,0,1,1,0,1,0.383287272727273,"1",1,1,"-1"
"779",3409,2,2,90,0,0.51,0.42,0.14,1,0,90,0.09266,43,1,19137,-0.278,0.27799,0,0,0,0,1,0,0,0,0.257398888888889,"1",1,1,"-1"
"780",4749,1,2,180,0,0.37,0.14,0.14,1,0,180,0.23166,44,1,19137,0,0.13899,0,0,0,0,1,1,0,0,0.19856,"1",1,1,"-1"
"782",2712,2,2,0,90,0.42,-0.23,-0.23,1,90,0,0.64865,46,1,19137,0,-0.23166,1,0,0,0,1,1,0,0,0.54672,"-1",-1,0,"1"
"783",3801,3,2,180,270,-0.56,-0.05,0.28,1,270,180,-0.50965,47,1,19137,0.32432,0.11583,1,1,0,0,0,0,0,0,-0.509647142857143,"1",-1,1,"1"
"784",2488,2,2,90,270,-0.6,-0.46,-0.05,1,270,90,-0.139,48,1,19137,0.41699,-0.254825,1,0,0,0,1,0,0,0,-0.198561428571429,"-1",-1,1,"1"
"787",4154,3,1,180,0,0.23,-0.05,-0.46,1,180,0,0.27799,51,1,19137,-0.41699,-0.254825,0,1,0,0,1,0,0,0,0.277992857142857,"-1",-1,0,"-1"
"788",3558,2,2,0,90,-0.28,-0.42,0.23,1,90,0,0.139,52,1,19137,0.64865,-0.092665,1,0,0,0,0,0,0,0,-0.0540533333333333,"1",-1,1,"1"
"789",2560,2,1,180,90,0.42,0.23,0.19,1,180,90,0.18533,53,1,19137,-0.04633,0.208495,0,0,0,0,1,0,0,0,0.197967272727273,"1",1,1,"-1"
"790",2743,2,1,270,270,0.28,0.05,0.46,1,270,270,0.23166,54,1,19137,0.41699,0.254825,1,0,1,1,1,0,0,1,0.236806666666667,"1",1,1,"1"
"793",2613,3,2,180,180,0.23,0.37,-0.19,1,180,180,-0.139,57,1,19137,-0.55598,0.09266,0,1,1,1,0,0,0,1,-0.04633,"-1",1,1,"-1"
"796",6387,3,1,270,90,-0.14,0,-0.42,1,270,90,-0.139,60,1,19137,-0.41699,-0.208495,1,1,0,0,0,0,0,0,-0.463325,"-1",0,0,"1"
"797",3487,2,1,0,180,0.23,-0.09,0,1,0,180,0.32432,61,1,19137,0.09266,-0.04633,0,0,0,0,0,0,0,0,0.315058,"0",-1,0,"-1"
"800",4898,2,2,180,90,0.37,-0.23,-0.23,1,90,180,0.60231,64,1,19137,0,-0.23166,1,0,0,0,1,1,0,0,0.50038,"-1",-1,0,"1"
"802",3887,2,2,90,90,-0.05,-0.05,-0.19,1,90,90,0,66,1,19137,-0.139,-0.11583,1,0,1,1,1,0,0,1,0.00000285714285713778,"-1",-1,1,"1"
"803",3682,3,1,90,270,-0.32,0.09,0,1,90,270,-0.41699,67,1,19137,-0.09266,0.04633,1,1,0,0,0,0,0,0,-0.625475,"0",1,0,"1"
"804",3269,2,1,0,180,-0.28,-0.28,-0.28,1,0,180,0,68,1,19137,0,-0.27799,0,0,0,0,1,1,0,0,-0.030885,"-1",-1,1,"-1"
"805",2719,3,1,270,270,0.46,0.37,0.37,1,270,270,0.09266,69,1,19137,0,0.37065,1,1,1,1,1,1,0,1,0.18533,"1",1,1,"1"
"806",3220,3,1,90,270,0.46,0.32,0.23,1,90,270,0.139,70,1,19137,-0.09266,0.27799,1,1,0,0,1,0,0,0,0.304468571428571,"1",1,1,"1"
"807",2434,1,2,180,90,0.28,0.09,-0.42,1,90,180,0.18533,71,1,19137,-0.50965,-0.162165,1,0,0,0,0,0,0,0,-0.023165,"-1",1,1,"1"
"809",4247,3,2,180,0,-0.28,-0.46,-0.42,1,0,180,0.18533,73,1,19137,0.04633,-0.440155,0,1,0,0,1,0,0,0,0.125758571428571,"-1",-1,1,"-1"
"810",3082,3,2,270,270,-0.42,-0.23,0.42,1,270,270,-0.18533,74,1,19137,0.64865,0.092665,1,1,1,1,0,0,0,1,-0.28726,"1",-1,1,"1"
"811",2604,2,1,0,180,0,-0.19,-0.05,1,0,180,0.18533,75,1,19137,0.139,-0.11583,0,0,0,0,1,0,0,0,0.146718333333333,"-1",-1,0,"-1"
"814",3653,2,1,270,0,0.14,0.28,-0.09,1,270,0,-0.139,78,1,19137,-0.37065,0.092665,1,0,0,0,0,0,0,1,-0.0154477777777778,"-1",1,1,"1"
"821",3562,2,1,270,180,0.37,0.28,-0.05,1,270,180,0.09266,85,1,19137,-0.32432,0.11583,1,0,0,0,0,0,0,0,0.216212222222222,"-1",1,1,"1"
"824",4573,2,1,90,0,0.05,0.19,0.19,1,90,0,-0.139,88,1,19137,0,0.18533,1,0,0,0,1,1,0,0,-0.017375,"1",1,1,"1"
"825",2301,2,2,270,0,-0.05,-0.05,-0.05,1,0,270,0,89,1,19137,0,-0.04633,0,0,0,0,1,1,0,1,0.00000285714285713778,"-1",-1,1,"-1"
"829",5098,1,1,270,180,-0.6,-0.32,0.37,1,270,180,-0.27799,93,1,19137,0.69497,0.023165,1,0,0,0,0,0,0,0,-0.46331375,"1",-1,1,"1"
"830",3922,2,2,180,90,-0.46,-0.14,0.05,1,90,180,-0.32432,94,1,19137,0.18533,-0.046335,1,0,0,0,0,0,0,0,-0.293436666666667,"1",-1,1,"1"
"832",3855,2,1,270,270,-0.6,-0.28,-0.19,1,270,270,-0.32432,96,1,19137,0.09266,-0.23166,1,0,1,1,1,0,0,1,-0.355205,"-1",-1,1,"1"
"834",2378,2,2,0,0,0.23,0.42,0.42,1,0,0,-0.18533,98,1,19137,0,0.41699,0,0,1,1,1,1,0,1,-0.0205911111111111,"1",1,1,"-1"
"836",4170,2,2,90,270,0.42,0.14,-0.19,1,270,90,0.27799,100,1,19137,-0.32432,-0.02317,1,0,0,0,0,0,0,0,0.2449,"-1",1,1,"1"
"837",3154,3,1,90,270,0.46,0.46,0.42,1,90,270,0,101,1,19137,-0.04633,0.440155,1,1,0,0,1,0,0,0,0.214285,"1",1,1,"1"
"839",2964,2,2,90,180,-0.51,-0.37,-0.28,1,180,90,-0.139,103,1,19137,0.09267,-0.324325,0,0,0,0,1,0,0,0,-0.055598,"-1",-1,1,"-1"
"841",2751,2,1,0,180,0.19,0.23,0.28,1,0,180,-0.04633,105,1,19137,0.04633,0.254825,0,0,0,0,1,0,0,0,-0.0336927272727273,"1",1,1,"-1"
"843",3590,1,2,0,0,-0.42,-0.42,0.46,1,0,0,0,107,1,19137,0.88031,0.023165,0,0,1,1,0,0,0,1,-0.193053333333333,"1",-1,1,"-1"
"844",3829,3,1,0,180,-0.37,-0.32,0.19,1,0,180,-0.04633,108,1,19137,0.50965,-0.069495,0,1,0,0,0,0,0,0,-0.23166375,"1",-1,1,"-1"
"845",4269,2,2,90,270,-0.6,-0.42,-0.28,1,270,90,-0.18533,109,1,19137,0.139,-0.34749,1,0,0,0,1,0,0,0,-0.378373333333333,"-1",-1,1,"1"
"846",3122,1,2,180,180,-0.37,-0.19,-0.19,1,180,180,-0.18533,110,1,19137,0,-0.18533,0,0,1,1,1,1,0,1,-0.223941666666667,"-1",-1,1,"-1"
"847",2886,2,1,180,90,-0.51,0.46,0.46,1,180,90,-0.97297,111,1,19137,0,0.46332,0,0,0,0,1,1,0,0,-0.758685,"1",1,0,"-1"
"848",4187,2,2,0,0,0.19,-0.14,0.05,1,0,0,0.32432,112,1,19137,0.18533,-0.046335,0,0,1,1,0,0,0,1,0.355213333333333,"1",-1,0,"-1"
"849",2427,2,1,270,270,0.28,-0.32,-0.19,1,270,270,0.60231,113,1,19137,0.13899,-0.254825,1,0,1,1,1,0,0,1,0.41698625,"-1",-1,0,"1"
"850",1892,3,2,270,90,0.56,0.46,-0.28,1,90,270,0.09266,114,1,19137,-0.74131,0.092665,1,1,0,0,0,0,0,0,0.306945,"-1",1,1,"1"
"853",2059,3,2,270,0,-0.46,-0.23,-0.23,1,0,270,-0.23166,117,1,19137,0,-0.23166,0,1,0,0,1,1,0,1,-0.33359,"-1",-1,1,"-1"
"857",5953,1,2,0,270,0.19,0.14,0.09,1,270,0,0.04633,121,1,19137,-0.04633,0.115825,1,0,0,0,1,0,0,1,0.01324,"1",1,1,"1"
"858",2183,1,1,90,180,0.37,0.19,0.28,1,90,180,0.18533,122,1,19137,0.09266,0.23166,1,0,0,0,1,0,0,0,0.306945,"1",1,1,"1"
"862",2285,3,1,90,90,-0.46,-0.14,-0.14,1,90,90,-0.32432,126,1,19137,0,-0.139,1,1,1,1,1,1,0,1,-0.293436666666667,"-1",-1,1,"1"
"863",2300,3,1,180,90,-0.37,0.42,0.09,1,180,90,-0.78764,127,1,19137,-0.32433,0.254825,0,1,0,0,1,0,0,0,-0.622911111111111,"1",1,0,"-1"
"868",2370,3,1,270,90,0.19,0.14,0.05,1,270,90,0.04633,132,1,19137,-0.09266,0.09266,1,1,0,0,1,0,0,0,0.01324,"1",1,1,"1"
"870",3889,2,1,270,180,-0.6,-0.37,0,1,270,180,-0.23166,134,1,19137,0.37066,-0.18533,1,0,0,0,0,0,0,0,-0.148258,"0",-1,1,"1"
"871",3872,3,1,90,180,-0.09,0.32,0.32,1,90,180,-0.41699,135,1,19137,0,0.32432,1,1,0,0,1,1,0,0,-0.251511428571429,"1",1,0,"1"
"873",2681,2,1,90,90,0.09,0,-0.23,1,90,90,0.09266,137,1,19137,-0.23166,-0.11583,1,0,1,1,0,0,0,1,-0.231665,"-1",0,0,"1"
"874",2325,1,2,270,90,-0.6,-0.46,-0.46,1,90,270,-0.139,138,1,19137,0,-0.46332,1,0,0,0,1,1,0,0,-0.198561428571429,"-1",-1,1,"1"
"875",2537,1,1,180,90,-0.6,-0.37,-0.37,1,180,90,-0.23166,139,1,19137,0,-0.37066,0,0,0,0,1,1,0,0,-0.148258,"-1",-1,1,"-1"
"877",2529,1,1,90,0,-0.6,0,0.32,1,90,0,-0.60231,141,1,19137,0.32432,0.16216,1,0,0,0,0,0,0,0,-0.926635,"1",0,0,"1"
"881",2313,1,2,0,90,-0.56,-0.19,0.46,1,90,0,-0.37065,145,1,19137,0.64865,0.138995,1,0,0,0,0,0,0,0,-0.409261666666667,"1",-1,1,"1"
"887",2723,1,2,0,270,-0.37,-0.05,-0.19,1,270,0,-0.32432,4,2,19137,-0.139,-0.11583,1,0,0,0,1,0,0,1,-0.324327142857143,"-1",-1,1,"1"
"889",2529,2,1,180,90,0.42,0,0,1,180,90,0.41699,6,2,19137,0,0,0,0,0,0,1,1,0,0,0.092665,"0",0,0,"-1"
"890",2340,3,1,270,90,0,0.32,0.09,1,270,90,-0.32432,7,2,19137,-0.23166,0.20849,1,1,0,0,1,0,0,0,-0.158851428571429,"1",1,0,"1"
"894",3220,3,2,270,90,-0.37,-0.32,-0.19,1,90,270,-0.04633,11,2,19137,0.13899,-0.254825,1,1,0,0,1,0,0,0,-0.23166375,"-1",-1,1,"1"
"899",2899,3,1,180,180,0.42,0.46,-0.09,1,180,180,-0.04633,16,2,19137,-0.55598,0.18533,0,1,1,1,0,0,0,1,0.167955,"-1",1,1,"-1"
"901",3482,2,1,0,0,-0.6,-0.14,-0.05,1,0,0,-0.46332,18,2,19137,0.09267,-0.092665,0,0,1,1,1,0,0,1,-0.432426666666667,"-1",-1,1,"-1"
"902",2304,1,2,90,90,0.37,0.42,-0.37,1,90,90,-0.04633,19,2,19137,-0.78765,0.023165,1,0,1,1,0,0,0,1,0.118398888888889,"-1",1,1,"1"
"903",3425,3,2,180,270,0.32,-0.19,0.46,1,270,180,0.50965,20,2,19137,0.64865,0.138995,1,1,0,0,0,0,0,0,0.471038333333333,"1",-1,0,"1"
"904",2578,3,2,270,270,-0.6,-0.37,-0.14,1,270,270,-0.23166,21,2,19137,0.23166,-0.25483,1,1,1,1,1,0,0,1,-0.148258,"-1",-1,1,"1"
"905",2729,2,2,270,90,0,0.14,0.14,1,90,270,-0.139,22,2,19137,0,0.13899,1,0,0,0,1,1,0,0,-0.17209,"1",1,0,"1"
"906",3019,1,2,180,180,-0.42,0.32,0.42,1,180,180,-0.74131,23,2,19137,0.09267,0.370655,0,0,1,1,1,0,0,1,-0.575841428571429,"1",1,0,"-1"
"907",2589,3,2,90,0,-0.37,0.28,0.14,1,0,90,-0.64865,24,2,19137,-0.139,0.20849,0,1,0,0,1,0,0,0,-0.525097777777778,"1",1,0,"-1"
"908",2792,2,1,180,270,-0.46,-0.05,0.23,1,180,270,-0.41699,25,2,19137,0.27799,0.092665,0,0,0,0,0,0,0,0,-0.416987142857143,"1",-1,1,"-1"
"909",2374,2,1,0,0,-0.37,-0.37,-0.28,1,0,0,0,26,2,19137,0.09267,-0.324325,0,0,1,1,1,0,0,1,0.083392,"-1",-1,1,"-1"
"910",3118,1,2,270,0,-0.14,-0.14,0.37,1,0,270,0,27,2,19137,0.50965,0.115825,0,0,0,0,0,0,0,1,0.0308833333333333,"1",-1,1,"-1"
"912",1961,2,2,0,0,-0.14,-0.28,-0.23,1,0,0,0.139,29,2,19137,0.04633,-0.254825,0,0,1,1,1,0,0,1,0.108105,"-1",-1,1,"-1"
"913",2337,2,2,90,180,0.23,0.14,-0.28,1,180,90,0.09266,30,2,19137,-0.41698,-0.0695,0,0,0,0,0,0,0,0,0.05957,"-1",1,1,"-1"
"914",3018,3,2,270,90,0,0.05,-0.32,1,90,270,-0.04633,31,2,19137,-0.37065,-0.138995,1,1,0,0,0,0,0,0,-0.0411833333333333,"-1",1,0,"1"
"918",2754,4,1,270,0,0.42,-0.23,0.19,1,270,0,0.64865,35,2,19137,0.41699,-0.023165,1,1,0,0,0,0,0,1,0.54672,"1",-1,0,"1"
"920",2791,2,1,180,270,0.6,0.37,0,1,180,270,0.23166,37,2,19137,-0.37065,0.185325,0,0,0,0,0,0,0,0,0.32432,"0",1,1,"-1"
"922",2591,1,1,270,180,0.46,-0.42,-0.37,1,270,180,0.8803,39,2,19137,0.04633,-0.393825,1,0,0,0,1,0,0,0,0.687256666666667,"-1",-1,0,"1"
"923",2850,2,1,90,90,0.23,0,0,1,90,90,0.23166,40,2,19137,0,0,1,0,1,1,1,1,0,1,-0.092665,"0",0,0,"1"
"925",2455,2,2,180,180,0.19,0.37,-0.28,1,180,180,-0.18533,42,2,19137,-0.64864,0.04633,0,0,1,1,0,0,0,1,-0.09266,"-1",1,1,"-1"
"927",3131,2,2,270,270,-0.46,-0.23,-0.32,1,270,270,-0.23166,44,2,19137,-0.09266,-0.27799,1,0,1,1,1,0,0,1,-0.33359,"-1",-1,1,"1"
"929",2772,1,2,90,180,-0.46,-0.46,-0.23,1,180,90,0,46,2,19137,0.23166,-0.34749,0,0,0,0,1,0,0,0,-0.0595714285714286,"-1",-1,1,"-1"
"931",3676,3,1,0,90,-0.32,0.05,0.05,1,0,90,-0.37065,48,2,19137,0,0.04633,0,1,0,0,1,1,0,0,-0.365503333333333,"1",1,0,"-1"
"932",3890,1,1,270,90,0.32,0.23,-0.14,1,270,90,0.09266,49,2,19137,-0.37066,0.04633,1,0,0,0,0,0,0,0,0.105297272727273,"-1",1,1,"1"
"933",2656,2,2,90,180,0,-0.32,-0.32,1,180,90,0.32432,50,2,19137,0,-0.32432,0,0,0,0,1,1,0,0,0.13899625,"-1",-1,0,"-1"
"935",2784,2,2,0,180,0.19,0.05,-0.46,1,180,0,0.139,52,2,19137,-0.50965,-0.208495,0,0,0,0,0,0,0,0,0.144146666666667,"-1",1,1,"-1"
"938",2289,3,2,90,270,-0.6,-0.05,0.28,1,270,90,-0.55598,55,2,19137,0.32432,0.11583,1,1,0,0,0,0,0,0,-0.555977142857143,"1",-1,1,"1"
"939",4102,2,2,270,180,0.23,-0.42,0.23,1,180,270,0.64865,56,2,19137,0.64865,-0.092665,0,0,0,0,0,0,0,0,0.455596666666667,"1",-1,0,"-1"
"940",2320,1,1,90,180,0.46,0.28,0.42,1,90,180,0.18533,57,2,19137,0.139,0.34749,1,0,0,0,1,0,0,0,0.308882222222222,"1",1,1,"1"
"941",3851,2,1,180,0,0.6,0.05,0.09,1,180,0,0.55598,58,2,19137,0.04633,0.069495,0,0,0,0,1,0,0,0,0.561126666666667,"1",1,1,"-1"
"942",3399,4,2,0,90,-0.6,-0.32,-0.32,1,90,0,-0.27799,59,2,19137,0,-0.32432,1,1,0,0,1,1,0,0,-0.46331375,"-1",-1,1,"1"
"943",3738,2,1,0,0,0.05,-0.09,-0.09,1,0,0,0.139,60,2,19137,0,-0.09266,0,0,1,1,1,1,0,1,0.129728,"-1",-1,0,"-1"
"944",1818,1,2,180,0,-0.23,-0.42,-0.42,1,0,180,0.18533,61,2,19137,0,-0.41699,0,0,0,0,1,1,0,0,-0.00772333333333333,"-1",-1,1,"-1"
"945",3996,3,1,270,270,0.19,0.42,0.46,1,270,270,-0.23166,62,2,19137,0.04633,0.440155,1,1,1,1,1,0,0,1,-0.0669211111111111,"1",1,1,"1"
"946",2387,1,2,270,270,-0.56,0.19,0.19,1,270,270,-0.74131,63,2,19137,0,0.18533,1,0,1,1,1,1,0,1,-0.619685,"1",1,0,"1"
"947",3053,2,1,180,270,0,-0.46,-0.46,1,180,270,0.46332,64,2,19137,0,-0.46332,0,0,0,0,1,1,0,0,0.403748571428571,"-1",-1,0,"-1"
"948",2349,2,1,0,0,0.14,0.32,0.32,1,0,0,-0.18533,65,2,19137,0,0.32432,0,0,1,1,1,1,0,1,-0.0198614285714286,"1",1,1,"-1"
"949",3842,2,1,180,90,-0.05,-0.14,0.46,1,180,90,0.09266,66,2,19137,0.60232,0.16216,0,0,0,0,0,0,0,0,0.123553333333333,"1",-1,1,"-1"
"955",5898,4,2,270,180,0.32,0.23,-0.32,1,180,270,0.09266,72,2,19137,-0.55598,-0.04633,0,1,0,0,0,0,0,0,0.105297272727273,"-1",1,1,"-1"
"956",3229,3,1,180,0,0.56,0.37,-0.19,1,180,0,0.18533,73,2,19137,-0.55598,0.09266,0,1,0,0,0,0,0,0,0.27799,"-1",1,1,"-1"
"957",3997,3,1,180,180,0.37,0.23,0.37,1,180,180,0.139,74,2,19137,0.13899,0.301155,0,1,1,1,1,0,0,1,0.151627272727273,"1",1,1,"-1"
"960",3119,1,2,90,180,-0.05,-0.09,0.32,1,180,90,0.04633,77,2,19137,0.41698,0.11583,0,0,0,0,0,0,0,0,0.037068,"1",-1,1,"-1"
"961",3148,2,2,180,180,0,-0.14,0.19,1,180,180,0.139,78,2,19137,0.32433,0.023165,0,0,1,1,0,0,0,1,0.169883333333333,"1",-1,0,"-1"
"963",2833,2,2,270,0,-0.09,0.46,0.09,1,0,270,-0.55598,80,2,19137,-0.37066,0.27799,0,0,0,0,1,0,0,1,-0.341695,"1",1,0,"-1"
"966",3348,2,1,180,180,0.28,0.28,-0.14,1,180,180,0,83,2,19137,-0.41699,0.069495,0,0,1,1,0,0,0,1,0.123552222222222,"-1",1,1,"-1"
"967",3008,3,2,0,180,0.6,0.28,0,1,180,0,0.32432,84,2,19137,-0.27799,0.138995,0,1,0,0,0,0,0,0,0.447872222222222,"0",1,1,"-1"
"968",3027,2,2,270,90,0.05,-0.28,-0.28,1,90,270,0.32432,85,2,19137,0,-0.27799,1,0,0,0,1,1,0,0,0.293435,"-1",-1,0,"1"
"971",2468,3,1,180,0,0.6,0.37,-0.28,1,180,0,0.23166,88,2,19137,-0.64864,0.04633,0,1,0,0,0,0,0,0,0.32432,"-1",1,1,"-1"
"973",2812,3,1,180,0,-0.51,-0.46,-0.14,1,180,0,-0.04633,90,2,19137,0.32432,-0.30116,0,1,0,0,1,0,0,0,-0.105901428571429,"-1",-1,1,"-1"
"976",3300,2,1,0,180,-0.14,-0.28,-0.28,1,0,180,0.139,93,2,19137,0,-0.27799,0,0,0,0,1,1,0,0,0.108105,"-1",-1,1,"-1"
"977",2618,2,2,270,270,-0.28,0.28,0.32,1,270,270,-0.55598,94,2,19137,0.04633,0.301155,1,0,1,1,1,0,0,1,-0.432427777777778,"1",1,0,"1"
"978",8028,1,2,270,0,0.42,0.23,-0.19,1,0,270,0.18533,95,2,19137,-0.41699,0.023165,0,0,0,0,0,0,0,1,0.197967272727273,"-1",1,1,"-1"
"979",3191,4,1,0,270,0.32,0.28,0.46,1,0,270,0.04633,96,2,19137,0.18533,0.370655,0,1,0,0,1,0,0,1,0.169882222222222,"1",1,1,"-1"
"981",3714,1,2,0,270,-0.19,-0.14,0.05,1,270,0,-0.04633,98,2,19137,0.18533,-0.046335,1,0,0,0,0,0,0,1,-0.0154466666666667,"1",-1,1,"1"
"982",2316,2,1,90,180,0.19,0,0.19,1,90,180,0.18533,99,2,19137,0.18533,0.092665,1,0,0,0,0,0,0,0,-0.138995,"1",0,0,"1"
"983",2177,1,2,0,270,0,0.05,0.05,1,270,0,-0.04633,100,2,19137,0,0.04633,1,0,0,0,1,1,0,1,-0.0411833333333333,"1",1,0,"1"
"984",3108,3,1,0,180,0.19,0.42,0.42,1,0,180,-0.23166,101,2,19137,0,0.41699,0,1,0,0,1,1,0,0,-0.0669211111111111,"1",1,1,"-1"
"985",4087,1,1,270,0,-0.09,-0.05,-0.05,1,270,0,-0.04633,102,2,19137,0,-0.04633,1,0,0,0,1,1,0,1,-0.0463271428571429,"-1",-1,1,"1"
"988",4118,4,2,90,270,0.37,0.42,0.42,1,270,90,-0.04633,105,2,19137,0,0.41699,1,1,0,0,1,1,0,0,0.118398888888889,"1",1,1,"1"
"991",3227,3,2,90,90,0.46,0.23,0.09,1,90,90,0.23166,108,2,19137,-0.139,0.16216,1,1,1,1,1,0,0,1,0.244297272727273,"1",1,1,"1"
"992",2638,2,2,180,0,0.46,0.32,-0.05,1,0,180,0.139,109,2,19137,-0.37065,0.138995,0,0,0,0,0,0,0,0,0.304468571428571,"-1",1,1,"-1"
"993",3204,1,2,0,180,0.19,0.46,0.09,1,180,0,-0.27799,110,2,19137,-0.37066,0.27799,0,0,0,0,1,0,0,0,-0.063705,"1",1,1,"-1"
"996",3217,2,2,0,90,0.42,0.19,-0.42,1,90,0,0.23166,113,2,19137,-0.60232,-0.11583,1,0,0,0,0,0,0,0,0.353285,"-1",1,1,"1"
"997",2627,1,2,270,90,0.28,0.14,-0.19,1,90,270,0.139,114,2,19137,-0.32432,-0.02317,1,0,0,0,0,0,0,0,0.1059,"-1",1,1,"1"
"998",3147,3,1,0,270,0.23,0.19,0.19,1,0,270,0.04633,115,2,19137,0,0.18533,0,1,0,0,1,1,0,1,0.167955,"1",1,1,"-1"
"999",3156,3,1,180,0,-0.46,-0.14,0.09,1,180,0,-0.32432,116,2,19137,0.23166,-0.02317,0,1,0,0,0,0,0,0,-0.293436666666667,"1",-1,1,"-1"
"1003",2491,1,2,270,0,-0.05,0.42,-0.23,1,0,270,-0.46332,120,2,19137,-0.64865,0.092665,0,0,0,0,0,0,0,1,-0.298581111111111,"-1",1,0,"-1"
"1008",2892,2,1,270,180,-0.42,0.09,-0.37,1,270,180,-0.50965,125,2,19137,-0.46332,-0.139,1,0,0,0,0,0,0,0,-0.718145,"-1",1,0,"1"
"1009",3228,2,1,90,180,-0.46,-0.32,0.14,1,90,180,-0.139,126,2,19137,0.46331,-0.092665,1,0,0,0,0,0,0,0,-0.32432375,"1",-1,1,"1"
"1011",5603,3,1,270,0,-0.46,-0.42,-0.09,1,270,0,-0.04633,128,2,19137,0.32433,-0.254825,1,1,0,0,1,0,0,1,-0.239383333333333,"-1",-1,1,"1"
"1012",2626,1,1,180,270,0.09,0.05,-0.19,1,180,270,0.04633,129,2,19137,-0.23166,-0.0695,0,0,0,0,0,0,0,0,0.0514766666666667,"-1",1,1,"-1"
"1014",4777,1,1,90,180,-0.6,-0.37,-0.05,1,90,180,-0.23166,131,2,19137,0.32433,-0.208495,1,0,0,0,1,0,0,0,-0.148258,"-1",-1,1,"1"
"1017",3666,3,2,270,180,0.46,0.14,0.14,1,180,270,0.32432,134,2,19137,0,0.13899,0,1,0,0,1,1,0,0,0.29123,"1",1,1,"-1"
"1019",3254,2,1,0,0,-0.23,-0.42,-0.42,1,0,0,0.18533,136,2,19137,0,-0.41699,0,0,1,1,1,1,0,1,-0.00772333333333333,"-1",-1,1,"-1"
"1020",2885,3,2,90,0,0.05,0.28,0.14,1,0,90,-0.23166,137,2,19137,-0.139,0.20849,0,1,0,0,1,0,0,0,-0.108107777777778,"1",1,1,"-1"
"1024",2962,2,1,180,90,0.51,0,-0.42,1,180,90,0.50965,141,2,19137,-0.41699,-0.208495,0,0,0,0,0,0,0,0,0.185325,"-1",0,0,"-1"
"1025",6645,2,1,90,180,0.28,0.05,0.23,1,90,180,0.23166,142,2,19137,0.18533,0.138995,1,0,0,0,1,0,0,0,0.236806666666667,"1",1,1,"1"
"1026",5623,2,2,270,0,-0.05,-0.37,0.19,1,0,270,0.32432,143,2,19137,0.55599,-0.092665,0,0,0,0,0,0,0,1,0.407722,"1",-1,1,"-1"
"1027",3467,1,2,180,270,-0.05,0.14,0.42,1,270,180,-0.18533,144,2,19137,0.278,0.27799,1,0,0,0,1,0,0,0,-0.21842,"1",1,0,"1"
"1028",3038,1,2,270,270,-0.46,-0.23,0,1,270,270,-0.23166,145,2,19137,0.23166,-0.11583,1,0,1,1,0,0,0,1,-0.33359,"0",-1,1,"1"
"1029",2661,3,2,0,180,0.28,0.23,0.23,1,180,0,0.04633,146,2,19137,0,0.23166,0,1,0,0,1,1,0,0,0.0589672727272727,"1",1,1,"-1"
"1031",1802,1,2,0,180,-0.32,-0.28,-0.28,1,180,0,-0.04633,1,1,19197,0,-0.27799,0,0,0,0,1,1,0,0,-0.213122,"-1",-1,1,"-1"
"1032",1395,1,1,90,0,0.46,0.32,-0.32,1,90,0,0.139,2,1,19197,-0.64864,0,1,0,0,0,0,0,0,0,0.282627,"-1",1,1,"1"
"1034",7505,1,2,90,270,-0.23,-0.32,-0.28,1,270,90,0.09266,4,1,19197,0.04633,-0.301155,1,0,0,0,1,0,0,0,-0.2142825,"-1",-1,1,"1"
"1038",1650,2,1,0,270,0.05,0.28,-0.42,1,0,270,-0.23166,8,1,19197,-0.69498,-0.0695,0,0,0,0,0,0,0,1,0.0115825,"-1",1,1,"-1"
"1039",2407,3,1,180,270,0.46,0.14,-0.46,1,180,270,0.32432,9,1,19197,-0.60231,-0.162165,0,1,0,0,0,0,0,0,0.431245384615385,"-1",1,1,"-1"
"1040",1897,4,2,0,0,0.28,0.42,-0.23,1,0,0,-0.139,10,1,19197,-0.64865,0.092665,0,1,1,1,0,0,0,1,0.211804285714286,"-1",1,1,"-1"
"1041",1999,3,1,0,0,-0.09,0.19,0.19,1,0,0,-0.27799,11,1,19197,0,0.18533,0,1,1,1,1,1,0,1,-0.19111625,"1",1,0,"-1"
"1045",1238,4,1,270,270,-0.19,-0.14,0.32,1,270,270,-0.04633,15,1,19197,0.46332,0.09266,1,1,1,1,0,0,0,1,-0.17953625,"1",-1,1,"1"
"1046",1343,4,2,180,90,0.14,-0.46,0.23,1,90,180,0.60231,16,1,19197,0.69498,-0.11583,1,1,0,0,0,0,0,0,0.13127,"1",-1,0,"1"
"1048",1430,2,1,180,270,-0.05,-0.37,-0.37,1,180,270,0.32432,18,1,19197,0,-0.37066,0,0,0,0,1,1,0,0,-0.0505418181818182,"-1",-1,1,"-1"
"1049",1433,1,1,0,180,0.23,-0.14,-0.37,1,0,180,0.37065,19,1,19197,-0.23166,-0.25483,0,0,0,0,1,0,0,0,0.23745375,"-1",-1,0,"-1"
"1050",2230,2,2,180,180,-0.14,0.14,0.05,1,180,180,-0.27799,20,1,19197,-0.09266,0.09266,0,0,1,1,1,0,0,1,-0.171074615384615,"1",1,0,"-1"
"1051",1277,1,2,180,90,-0.05,0.05,-0.23,1,90,180,-0.09266,21,1,19197,-0.27799,-0.092665,1,0,0,0,0,0,0,0,-0.055598,"-1",1,0,"1"
"1053",1205,2,1,90,0,-0.05,0.14,-0.42,1,90,0,-0.18533,23,1,19197,-0.55598,-0.139,1,0,0,0,0,0,0,0,-0.0784046153846154,"-1",1,0,"1"
"1054",1468,1,2,180,270,0.19,-0.46,-0.05,1,270,180,0.64865,24,1,19197,0.41699,-0.254825,1,0,0,0,1,0,0,0,0.17761,"-1",-1,0,"1"
"1055",1850,1,2,90,90,-0.09,0.05,0.23,1,90,90,-0.139,25,1,19197,0.18533,0.138995,1,0,1,1,1,0,0,1,-0.101928,"1",1,0,"1"
"1056",1265,1,2,270,0,0.09,-0.19,-0.09,1,0,270,0.27799,26,1,19197,0.09267,-0.138995,0,0,0,0,1,0,0,1,0.069495,"-1",-1,0,"-1"
"1059",1271,1,2,270,90,0.05,-0.23,-0.46,1,90,270,0.27799,29,1,19197,-0.23166,-0.34749,1,0,0,0,1,0,0,0,-0.00000090909090909308,"-1",-1,0,"1"
"1060",1474,2,2,180,180,0.46,0.14,0.14,1,180,180,0.32432,30,1,19197,0,0.13899,0,0,1,1,1,1,0,1,0.431245384615385,"1",1,1,"-1"
"1061",1619,2,1,90,0,0.37,0.42,0.19,1,90,0,-0.04633,31,1,19197,-0.23166,0.30116,1,0,0,0,1,0,0,0,0.304464285714286,"1",1,1,"1"
"1065",1505,3,2,180,90,0.09,-0.32,-0.09,1,90,180,0.41699,35,1,19197,0.23166,-0.20849,1,1,0,0,1,0,0,0,0.1100375,"-1",-1,0,"1"
"1068",1545,2,2,0,0,-0.09,-0.09,0.19,1,0,0,0,38,1,19197,0.27799,0.046335,0,0,1,1,0,0,0,1,-0.0595642857142857,"1",-1,1,"-1"
"1070",45417,2,2,270,90,-0.05,0.37,0.42,1,90,270,-0.41699,40,1,19197,0.04634,0.39382,1,0,0,0,1,0,0,0,-0.345380909090909,"1",1,0,"1"
"1071",2129,1,2,90,90,-0.37,-0.14,-0.46,1,90,90,-0.23166,41,1,19197,-0.32432,-0.30116,1,0,1,1,1,0,0,1,-0.36486625,"-1",-1,1,"1"
"1072",1260,1,1,90,90,0.42,0.37,-0.28,1,90,90,0.04633,42,1,19197,-0.64864,0.04633,1,0,1,1,0,0,0,1,0.117939090909091,"-1",1,1,"1"
"1073",1739,1,1,90,90,0.42,0.37,0.37,1,90,90,0.04633,43,1,19197,0,0.37065,1,0,1,1,1,1,0,1,0.117939090909091,"1",1,1,"1"
"1074",2916,3,2,180,0,-0.28,-0.19,0.32,1,0,180,-0.09266,44,1,19197,0.50965,0.069495,0,1,0,0,0,0,0,0,-0.301155,"1",-1,1,"-1"
"1076",1952,1,1,180,180,0.14,-0.32,-0.28,1,180,180,0.46332,46,1,19197,0.04633,-0.301155,0,0,1,1,1,0,0,1,0.1563675,"-1",-1,0,"-1"
"1077",1798,3,1,90,90,-0.37,-0.42,0.46,1,90,90,0.04633,47,1,19197,0.88031,0.023165,1,1,1,1,0,0,0,1,-0.355215,"1",-1,1,"1"
"1078",1552,4,2,90,90,0.14,-0.09,-0.05,1,90,90,0.23166,48,1,19197,0.04633,-0.069495,1,1,1,1,1,0,0,1,0.172085714285714,"-1",-1,0,"1"
"1080",1609,4,2,0,0,0.42,0.28,0.28,1,0,0,0.139,50,1,19197,0,0.27799,0,1,1,1,1,1,0,1,0.3822425,"1",1,1,"-1"
"1081",3855,2,2,270,180,0.19,0.19,0.19,1,180,270,0,51,1,19197,0,0.18533,0,0,0,0,1,1,0,0,0.08687375,"1",1,1,"-1"
"1082",2101,1,2,270,90,0.09,-0.05,0,1,90,270,0.139,52,1,19197,0.04633,-0.023165,1,0,0,0,0,0,0,0,0.129726,"0",-1,0,"1"
"1084",1862,4,2,180,0,0.14,-0.32,-0.32,1,0,180,0.46332,54,1,19197,0,-0.32432,0,1,0,0,1,1,0,0,0.1563675,"-1",-1,0,"-1"
"1085",1544,4,2,270,270,0.32,0.14,0.19,1,270,270,0.18533,55,1,19197,0.04634,0.16216,1,1,1,1,1,0,0,1,0.292245384615385,"1",1,1,"1"
"1086",2062,2,2,90,270,0.42,0.37,-0.46,1,270,90,0.04633,56,1,19197,-0.83397,-0.046335,1,0,0,0,0,0,0,0,0.117939090909091,"-1",1,1,"1"
"1087",1159,1,1,270,180,0.23,-0.37,-0.19,1,270,180,0.60231,57,1,19197,0.18533,-0.277995,1,0,0,0,1,0,0,0,0.227448181818182,"-1",-1,0,"1"
"1088",1182,1,1,270,0,0.37,0,-0.19,1,270,0,0.37065,58,1,19197,-0.18533,-0.092665,1,0,0,0,0,0,0,1,0.32432,"-1",0,0,"1"
"1089",2096,4,2,0,0,-0.37,-0.46,0.28,1,0,0,0.09266,59,1,19197,0.74131,-0.092665,0,1,1,1,0,0,0,1,-0.37838,"1",-1,1,"-1"
"1091",2369,1,2,180,270,0,0.05,0.19,1,270,180,-0.04633,61,1,19197,0.139,0.11583,1,0,0,0,1,0,0,0,-0.00926799999999999,"1",1,0,"1"
"1093",3373,1,2,180,180,0.19,-0.19,-0.19,1,180,180,0.37065,63,1,19197,0,-0.18533,0,0,1,1,1,1,0,1,0.162165,"-1",-1,0,"-1"
"1095",1759,4,2,180,0,-0.05,0.46,-0.28,1,0,180,-0.50965,65,1,19197,-0.74131,0.092665,0,1,0,0,0,0,0,0,-0.40154,"-1",1,0,"-1"
"1097",1708,1,1,90,0,0.46,0.37,0.23,1,90,0,0.09266,67,1,19197,-0.13899,0.301155,1,0,0,0,1,0,0,0,0.164269090909091,"1",1,1,"1"
"1098",1455,4,2,90,180,0.09,-0.28,0.09,1,180,90,0.37065,68,1,19197,0.37065,-0.092665,0,1,0,0,0,0,0,0,0.203858,"1",-1,0,"-1"
"1099",2990,4,1,0,0,-0.32,-0.37,0.42,1,0,0,0.04633,69,1,19197,0.78765,0.023165,0,1,1,1,0,0,0,1,-0.328531818181818,"1",-1,1,"-1"
"1100",2816,1,1,180,180,0.09,0.19,0.46,1,180,180,-0.09266,70,1,19197,0.27799,0.324325,0,0,1,1,1,0,0,1,-0.00579624999999999,"1",1,1,"-1"
"1101",1889,4,2,0,180,0.09,-0.14,0.46,1,180,0,0.23166,71,1,19197,0.60232,0.16216,0,1,0,0,0,0,0,0,0.09845375,"1",-1,0,"-1"
"1102",2710,3,1,270,270,0.05,0.37,0.37,1,270,270,-0.32432,72,1,19197,0,0.37065,1,1,1,1,1,1,0,1,-0.252720909090909,"1",1,1,"1"
"1103",1773,2,2,0,90,0.23,0.32,0.32,1,90,0,-0.09266,73,1,19197,0,0.32432,1,0,0,0,1,1,0,0,0.050967,"1",1,1,"1"
"1105",1493,2,1,180,180,-0.05,0.14,-0.14,1,180,180,-0.18533,75,1,19197,-0.27799,-0.000005000000000005,0,0,1,1,0,0,0,1,-0.0784046153846154,"-1",1,0,"-1"
"1107",2786,1,1,270,0,0.37,0.28,0.28,1,270,0,0.09266,77,1,19197,0,0.27799,1,0,0,0,1,1,0,1,0.3359025,"1",1,1,"1"
"1108",7061,2,2,180,180,0,0,0.05,1,180,180,0,78,1,19197,0.04633,0.023165,0,0,1,1,0,0,0,1,-0.04633,"1",0,1,"-1"
"1109",1443,1,1,270,0,0.46,0.46,0.46,1,270,0,0,79,1,19197,0,0.46332,1,0,0,0,1,1,0,1,0.10811,"1",1,1,"1"
"1112",2207,4,1,0,180,0.09,0.05,-0.05,1,0,180,0.04633,82,1,19197,-0.09266,0,0,1,0,0,0,0,0,0,0.083392,"-1",1,1,"-1"
"1114",4359,2,2,270,270,-0.05,0.32,0,1,270,270,-0.37065,84,1,19197,-0.32432,0.16216,1,0,1,1,0,0,0,1,-0.227023,"0",1,0,"1"
"1115",1511,4,2,270,270,0,0.14,0.14,1,270,270,-0.139,85,1,19197,0,0.13899,1,1,1,1,1,1,0,1,-0.0320746153846154,"1",1,0,"1"
"1117",2142,1,2,90,180,0.42,0.19,-0.19,1,180,90,0.23166,87,1,19197,-0.37066,0,0,0,0,0,0,0,0,0,0.31853375,"-1",1,1,"-1"
"1118",2407,1,1,90,90,0.05,-0.28,0.05,1,90,90,0.32432,88,1,19197,0.32432,-0.11583,1,0,1,1,0,0,0,1,0.157528,"1",-1,0,"1"
"1119",1666,3,2,0,180,0.32,0,0,1,180,0,0.32432,89,1,19197,0,0,0,1,0,0,1,1,0,0,0.27799,"0",0,0,"-1"
"1122",6379,3,1,90,0,0.05,0.14,0.09,1,90,0,-0.09266,92,1,19197,-0.04633,0.115825,1,1,0,0,1,0,0,0,0.0142553846153846,"1",1,1,"1"
"1123",1430,1,1,0,90,0.14,-0.14,-0.42,1,0,90,0.27799,93,1,19197,-0.27799,-0.277995,0,0,0,0,1,0,0,0,0.14478375,"-1",-1,0,"-1"
"1124",4325,1,1,0,0,0.09,-0.19,-0.23,1,0,0,0.27799,94,1,19197,-0.04633,-0.208495,0,0,1,1,1,0,0,1,0.069495,"-1",-1,0,"-1"
"1127",3812,3,1,270,270,-0.28,-0.28,0,1,270,270,0,97,1,19197,0.27799,-0.138995,1,1,1,1,0,0,0,1,-0.166792,"0",-1,1,"1"
"1129",2830,1,2,180,90,-0.32,-0.14,-0.14,1,90,180,-0.18533,99,1,19197,0,-0.139,1,0,0,0,1,1,0,0,-0.31852625,"-1",-1,1,"1"
"1130",2489,2,2,0,270,-0.05,-0.09,-0.09,1,270,0,0.04633,100,1,19197,0,-0.09266,1,0,0,0,1,1,0,1,-0.0132342857142857,"-1",-1,1,"1"
"1133",1777,4,2,0,90,0.14,0.32,-0.28,1,90,0,-0.18533,103,1,19197,-0.60231,0.023165,1,1,0,0,0,0,0,0,-0.041703,"-1",1,1,"1"
"1134",2546,2,2,270,270,-0.42,-0.46,0.09,1,270,270,0.04633,104,1,19197,0.55598,-0.18533,1,0,1,1,0,0,0,1,-0.42471,"1",-1,1,"1"
"1135",1729,1,1,0,180,-0.05,-0.09,0.42,1,0,180,0.04633,105,1,19197,0.50965,0.162165,0,0,0,0,0,0,0,0,-0.0132342857142857,"1",-1,1,"-1"
"1136",1864,1,1,270,180,0.05,0.23,0.23,1,270,180,-0.18533,106,1,19197,0,0.23166,1,0,0,0,1,1,0,0,0.0386083333333333,"1",1,1,"1"
"1138",3991,1,1,270,90,0.42,0.37,-0.09,1,270,90,0.04633,108,1,19197,-0.46331,0.138995,1,0,0,0,0,0,0,0,0.117939090909091,"-1",1,1,"1"
"1139",2571,2,1,0,90,0.09,0.32,-0.42,1,0,90,-0.23166,109,1,19197,-0.74131,-0.046335,0,0,0,0,0,0,0,0,-0.088033,"-1",1,1,"-1"
"1140",8730,2,1,0,0,0.6,0.46,0.46,1,0,0,0.139,110,1,19197,0,0.46332,0,0,1,1,1,1,0,1,0.2471,"1",1,1,"-1"
"1141",1780,3,1,90,180,-0.09,0.09,0.09,1,90,180,-0.18533,111,1,19197,0,0.09266,1,1,0,0,1,1,0,0,-0.17374,"1",1,0,"1"
"1142",3153,4,2,270,90,-0.14,-0.37,0.19,1,90,270,0.23166,112,1,19197,0.55599,-0.092665,1,1,0,0,0,0,0,0,-0.143211818181818,"1",-1,1,"1"
"1143",2885,1,1,0,180,0.56,0.46,0.46,1,0,180,0.09266,113,1,19197,0,0.46332,0,0,0,0,1,1,0,0,0.20077,"1",1,1,"-1"
"1144",4752,1,2,90,90,0.05,-0.42,-0.42,1,90,90,0.46332,114,1,19197,0,-0.41699,1,0,1,1,1,1,0,1,0.061775,"-1",-1,0,"1"
"1145",1513,3,2,270,270,0,0.14,0.14,1,270,270,-0.139,115,1,19197,0,0.13899,1,1,1,1,1,1,0,1,-0.0320746153846154,"1",1,0,"1"
"1146",1261,4,2,270,270,0.14,0,0.37,1,270,270,0.13899,116,1,19197,0.37065,0.185325,1,1,1,1,0,0,0,1,0.09266,"1",0,0,"1"
"1150",2248,1,2,180,0,-0.19,-0.28,-0.28,1,0,180,0.09266,120,1,19197,0,-0.27799,0,0,0,0,1,1,0,0,-0.074132,"-1",-1,1,"-1"
"1151",2831,3,1,0,90,0,0.28,0.28,1,0,90,-0.27799,121,1,19197,0,0.27799,0,1,0,0,1,1,0,0,-0.0347475,"1",1,0,"-1"
"1152",1760,4,1,180,180,0,0.09,0.28,1,180,180,-0.09266,122,1,19197,0.18533,0.185325,0,1,1,1,1,0,0,1,-0.08108,"1",1,0,"-1"
"1153",1541,3,2,90,180,0.51,0.42,-0.37,1,180,90,0.09266,123,1,19197,-0.78765,0.023165,0,1,0,0,0,0,0,0,0.443464285714286,"-1",1,1,"-1"
"1154",1830,1,2,180,270,0,-0.14,0.19,1,270,180,0.139,124,1,19197,0.32433,0.023165,1,0,0,0,0,0,0,0,0.00579375,"1",-1,0,"1"
"1155",46172,3,2,180,180,0.05,-0.19,0.05,1,180,180,0.23166,125,1,19197,0.23166,-0.0695,0,1,1,1,0,0,0,1,0.023165,"1",-1,0,"-1"
"1156",4616,4,1,180,0,0.09,0.09,0.09,1,180,0,0,126,1,19197,0,0.09266,0,1,0,0,1,1,0,0,0.01158,"1",1,1,"-1"
"1157",2490,2,2,0,0,-0.09,0.46,-0.05,1,0,0,-0.55598,127,1,19197,-0.50965,0.208495,0,0,1,1,0,0,0,1,-0.44787,"-1",1,0,"-1"
"1158",5558,1,2,180,180,0.05,-0.05,-0.05,1,180,180,0.09266,128,1,19197,0,-0.04633,0,0,1,1,1,1,0,1,0.083396,"-1",-1,0,"-1"
"1160",11192,1,2,90,0,0.14,0,0,1,0,90,0.13899,130,1,19197,0,0,0,0,0,0,1,1,0,0,0.09266,"0",0,0,"-1"
"1161",5873,2,1,90,270,-0.09,-0.37,-0.23,1,90,270,0.27799,131,1,19197,0.139,-0.30116,1,0,0,0,1,0,0,0,-0.0968718181818182,"-1",-1,1,"1"
"1163",4929,1,1,270,180,-0.05,0.05,-0.37,1,270,180,-0.09266,133,1,19197,-0.41699,-0.162165,1,0,0,0,0,0,0,0,-0.055598,"-1",1,0,"1"
"1164",2863,1,2,270,180,-0.14,-0.37,-0.37,1,180,270,0.23166,134,1,19197,0,-0.37066,0,0,0,0,1,1,0,0,-0.143211818181818,"-1",-1,1,"-1"
"1165",5060,1,1,0,90,0,-0.37,-0.46,1,0,90,0.37065,135,1,19197,-0.09266,-0.41699,0,0,0,0,1,0,0,0,-0.00421181818181818,"-1",-1,0,"-1"
"1169",3032,4,1,180,180,0.05,-0.32,0.28,1,180,180,0.37065,139,1,19197,0.60231,-0.023165,0,1,1,1,0,0,0,1,0.0637075,"1",-1,0,"-1"
"1172",3667,3,2,180,270,-0.14,-0.46,-0.46,1,270,180,0.32432,142,1,19197,0,-0.46332,1,1,0,0,1,1,0,0,-0.14672,"-1",-1,1,"1"
"1173",6137,1,2,270,0,-0.09,0.23,-0.46,1,0,270,-0.32432,143,1,19197,-0.69498,-0.11583,0,0,0,0,0,0,0,1,-0.100381666666667,"-1",1,0,"-1"
"1177",1545,4,2,180,180,0,0.46,-0.32,1,180,180,-0.46332,0,2,19197,-0.78764,0.0695,0,1,1,1,0,0,0,1,-0.35521,"-1",1,0,"-1"
"1179",1679,3,1,180,270,0.28,-0.37,-0.32,1,180,270,0.64865,2,2,19197,0.04634,-0.34749,0,1,0,0,1,0,0,0,0.273778181818182,"-1",-1,0,"-1"
"1184",1793,2,1,270,90,-0.09,-0.19,-0.05,1,270,90,0.09266,7,2,19197,0.139,-0.11583,1,0,0,0,1,0,0,0,-0.115825,"-1",-1,1,"1"
"1185",1242,1,1,90,90,0.05,-0.23,-0.37,1,90,90,0.27799,8,2,19197,-0.139,-0.30116,1,0,1,1,1,0,0,1,-0.00000090909090909308,"-1",-1,0,"1"
"1186",2481,2,1,180,90,-0.23,-0.23,-0.23,1,180,90,0,9,2,19197,0,-0.23166,0,0,0,0,1,1,0,0,-0.277990909090909,"-1",-1,1,"-1"
"1187",1865,4,1,180,270,-0.14,0.28,0.28,1,180,270,-0.41699,10,2,19197,0,0.27799,0,1,0,0,1,1,0,0,-0.1737475,"1",1,0,"-1"
"1188",1836,3,2,180,90,-0.05,-0.14,0.23,1,90,180,0.09266,11,2,19197,0.37066,0.04633,1,1,0,0,0,0,0,0,-0.04053625,"1",-1,1,"1"
"1189",5550,2,1,90,0,0,-0.37,-0.37,1,90,0,0.37065,12,2,19197,0,-0.37066,1,0,0,0,1,1,0,0,-0.00421181818181818,"-1",-1,0,"1"
"1190",2214,1,1,180,90,-0.05,0,-0.14,1,180,90,-0.04633,13,2,19197,-0.139,-0.0695,0,0,0,0,0,0,0,0,-0.09266,"-1",0,0,"-1"
"1191",1822,2,1,0,180,-0.09,0.05,0.46,1,0,180,-0.139,14,2,19197,0.41699,0.254825,0,0,0,0,1,0,0,0,-0.101928,"1",1,0,"-1"
"1193",2449,4,1,270,270,-0.09,-0.23,0.09,1,270,270,0.139,16,2,19197,0.32432,-0.0695,1,1,1,1,0,0,0,1,-0.138990909090909,"1",-1,1,"1"
"1194",2070,1,2,270,0,-0.05,-0.28,-0.05,1,0,270,0.23166,17,2,19197,0.23166,-0.16216,0,0,0,0,1,0,0,1,0.064868,"-1",-1,1,"-1"
"1197",5410,1,1,270,270,0,0.14,-0.32,1,270,270,-0.139,20,2,19197,-0.46331,-0.092665,1,0,1,1,0,0,0,1,-0.0320746153846154,"-1",1,0,"1"
"1199",2247,4,2,180,90,-0.14,0.42,0.42,1,90,180,-0.55598,22,2,19197,0,0.41699,1,1,0,0,1,1,0,0,-0.205185714285714,"1",1,0,"1"
"1201",5245,3,2,0,0,-0.05,-0.42,-0.46,1,0,0,0.37065,24,2,19197,-0.04633,-0.440155,0,1,1,1,1,0,0,1,-0.030885,"-1",-1,1,"-1"
"1203",1947,2,2,180,0,-0.05,0.37,0.19,1,0,180,-0.41699,26,2,19197,-0.18532,0.27799,0,0,0,0,1,0,0,0,-0.345380909090909,"1",1,0,"-1"
"1205",3878,4,1,90,270,-0.46,0.09,0.09,1,90,270,-0.55598,28,2,19197,0,0.09266,1,1,0,0,1,1,0,0,-0.5444,"1",1,0,"1"
"1208",3260,2,1,270,270,0.05,0.14,0.28,1,270,270,-0.09266,31,2,19197,0.139,0.20849,1,0,1,1,1,0,0,1,0.0142553846153846,"1",1,1,"1"
"1209",2901,4,1,0,270,-0.09,0.05,0.28,1,0,270,-0.139,32,2,19197,0.23166,0.16216,0,1,0,0,1,0,0,1,-0.101928,"1",1,0,"-1"
"1214",17282,1,2,270,270,-0.14,-0.32,-0.46,1,270,270,0.18533,37,2,19197,-0.139,-0.39382,1,0,1,1,1,0,0,1,-0.1216225,"-1",-1,1,"1"
"1217",3468,4,1,0,180,0.09,-0.23,-0.14,1,0,180,0.32432,40,2,19197,0.09266,-0.18533,0,1,0,0,1,0,0,0,0.0463290909090909,"-1",-1,0,"-1"
"1218",3035,1,1,270,180,-0.09,0.19,0.28,1,270,180,-0.27799,41,2,19197,0.09266,0.23166,1,0,0,0,1,0,0,0,-0.19111625,"1",1,0,"1"
"1219",2813,1,2,180,90,-0.09,-0.19,-0.42,1,90,180,0.09266,42,2,19197,-0.23166,-0.30116,1,0,0,0,1,0,0,0,-0.115825,"-1",-1,1,"1"
"1222",2135,1,2,180,90,-0.23,0.14,0.14,1,90,180,-0.37065,45,2,19197,0,0.13899,1,0,0,0,1,1,0,0,-0.263734615384615,"1",1,0,"1"
"1224",2192,1,1,0,90,0.14,-0.46,-0.46,1,0,90,0.60231,47,2,19197,0,-0.46332,0,0,0,0,1,1,0,0,0.13127,"-1",-1,0,"-1"
"1226",1615,1,2,90,180,0.46,0.37,0.28,1,180,90,0.09266,49,2,19197,-0.09266,0.32432,0,0,0,0,1,0,0,0,0.164269090909091,"1",1,1,"-1"
"1227",2367,2,1,270,0,-0.46,-0.32,0.14,1,270,0,-0.139,50,2,19197,0.46331,-0.092665,1,0,0,0,0,0,0,1,-0.4459425,"1",-1,1,"1"
"1228",1706,4,1,0,180,0,-0.05,0.32,1,0,180,0.04633,51,2,19197,0.37065,0.138995,0,1,0,0,0,0,0,0,0.037066,"1",-1,0,"-1"
"1229",2370,1,1,0,270,-0.56,-0.42,0.19,1,0,270,-0.139,52,2,19197,0.60232,-0.11583,0,0,0,0,0,0,0,1,-0.540535,"1",-1,1,"-1"
"1230",2012,1,1,180,180,-0.05,-0.05,-0.05,1,180,180,0,53,2,19197,0,-0.04633,0,0,1,1,1,1,0,1,-0.009264,"-1",-1,1,"-1"
"1233",2097,4,1,270,270,-0.14,0.42,0.05,1,270,270,-0.55598,56,2,19197,-0.37066,0.23166,1,1,1,1,1,0,0,1,-0.205185714285714,"1",1,0,"1"
"1235",2176,4,2,0,0,0.51,0.09,0.19,1,0,0,0.41699,58,2,19197,0.09267,0.138995,0,1,1,1,1,0,0,1,0.42857,"1",1,1,"-1"
"1236",4418,4,2,270,180,-0.14,-0.37,0.23,1,180,270,0.23166,59,2,19197,0.60232,-0.0695,0,1,0,0,0,0,0,0,-0.143211818181818,"1",-1,1,"-1"
"1237",3172,1,2,180,180,0,-0.14,-0.28,1,180,180,0.139,60,2,19197,-0.13899,-0.208495,0,0,1,1,1,0,0,1,0.00579375,"-1",-1,0,"-1"
"1239",4190,4,1,180,270,-0.19,0.28,0.28,1,180,270,-0.46332,62,2,19197,0,0.27799,0,1,0,0,1,1,0,0,-0.2200775,"1",1,0,"-1"
"1241",2031,2,2,90,90,-0.28,0.09,-0.23,1,90,90,-0.37065,64,2,19197,-0.32432,-0.0695,1,0,1,1,0,0,0,1,-0.35907,"-1",1,0,"1"
"1242",1650,1,2,0,90,0.05,-0.42,-0.09,1,90,0,0.46332,65,2,19197,0.32433,-0.254825,1,0,0,0,1,0,0,0,0.061775,"-1",-1,0,"1"
"1243",3598,3,1,90,270,-0.14,-0.05,-0.05,1,90,270,-0.09266,66,2,19197,0,-0.04633,1,1,0,0,1,1,0,0,-0.101934,"-1",-1,1,"1"
"1244",2162,4,1,270,180,-0.23,-0.28,0.19,1,270,180,0.04633,67,2,19197,0.46332,-0.04633,1,1,0,0,0,0,0,0,-0.120462,"1",-1,1,"1"
"1246",4328,3,2,90,0,-0.05,-0.05,0.32,1,0,90,0,69,2,19197,0.37065,0.138995,0,1,0,0,0,0,0,0,-0.009264,"1",-1,1,"-1"
"1247",2127,2,2,270,270,-0.05,-0.32,-0.32,1,270,270,0.27799,70,2,19197,0,-0.32432,1,0,1,1,1,1,0,1,-0.0289525,"-1",-1,1,"1"
"1248",1721,4,1,90,270,-0.05,0.42,0.42,1,90,270,-0.46332,71,2,19197,0,0.41699,1,1,0,0,1,1,0,0,-0.112515714285714,"1",1,0,"1"
"1249",2895,1,1,90,0,0.05,-0.14,-0.14,1,90,0,0.18533,72,2,19197,0,-0.139,1,0,0,0,1,1,0,0,0.05212375,"-1",-1,0,"1"
"1252",1564,1,1,180,90,-0.19,0.46,0,1,180,90,-0.64865,75,2,19197,-0.46332,0.23166,0,0,0,0,0,0,0,0,-0.54054,"0",1,0,"-1"
"1254",1894,3,2,0,90,-0.05,-0.28,0.32,1,90,0,0.23166,77,2,19197,0.60231,0.023165,1,1,0,0,0,0,0,0,0.064868,"1",-1,1,"1"
"1255",4393,3,1,270,180,0,0.14,0.14,1,270,180,-0.139,78,2,19197,0,0.13899,1,1,0,0,1,1,0,0,-0.0320746153846154,"1",1,0,"1"
"1257",7215,3,2,0,0,-0.09,-0.14,0,1,0,0,0.04633,80,2,19197,0.139,-0.0695,0,1,1,1,0,0,0,1,-0.08686625,"0",-1,1,"-1"
"1258",2817,3,2,0,90,0.05,0.32,-0.42,1,90,0,-0.27799,81,2,19197,-0.74131,-0.046335,1,1,0,0,0,0,0,0,-0.134363,"-1",1,1,"1"
"1259",4383,1,1,180,270,-0.42,0.32,0.32,1,180,270,-0.74131,82,2,19197,0,0.32432,0,0,0,0,1,1,0,0,-0.597683,"1",1,0,"-1"
"1261",11125,3,2,0,270,-0.23,-0.09,-0.09,1,270,0,-0.139,84,2,19197,0,-0.09266,1,1,0,0,1,1,0,1,-0.198564285714286,"-1",-1,1,"1"
"1262",4657,3,2,180,270,0.09,0.05,-0.14,1,270,180,0.04633,85,2,19197,-0.18533,-0.046335,1,1,0,0,0,0,0,0,0.083392,"-1",1,1,"1"
"1263",2540,2,1,180,270,-0.14,0.32,-0.19,1,180,270,-0.46332,86,2,19197,-0.50965,0.069495,0,0,0,0,0,0,0,0,-0.319693,"-1",1,0,"-1"
"1264",3488,3,1,270,0,-0.14,-0.19,-0.19,1,270,0,0.04633,87,2,19197,0,-0.18533,1,1,0,0,1,1,0,1,-0.162165,"-1",-1,1,"1"
"1269",1589,3,1,270,90,0.09,-0.46,-0.42,1,270,90,0.55598,92,2,19197,0.04633,-0.440155,1,1,0,0,1,0,0,0,0.08494,"-1",-1,0,"1"
"1270",2058,4,1,180,180,-0.19,-0.42,0.37,1,180,180,0.23166,93,2,19197,0.78764,-0.02317,0,1,1,1,0,0,0,1,-0.169885,"1",-1,1,"-1"
